timestamp,ax,ay,az,magnitude,gx,gy,gz,lat,lon,alt,speed,accuracy,bearing
1776327160587,-9.74205,16.678051,20.68095,24.569359,0.58575,-0.066825,0.113025,-6.8717012,109.492014,31.400001525878906,11.583359,2.661,213.03409
1776327160595,-8.31,11.545051,2.60505,16.48295,0.58575,-0.066825,0.113025,-6.8717012,109.492014,31.400001525878906,11.583359,2.661,213.03409
1776327160600,9.534,5.56995,-13.28505,17.116323,0.0886875,-0.60307497,0.4354625,-6.8717012,109.492014,31.400001525878906,11.583359,2.661,213.03409
1776327168836,2.9839501,12.205951,6.0930004,11.171789,-1.01915,0.3334375,-0.8980125,-6.8726158,109.4914013,31.400001525878906,11.572892,2.089,207.73314
1776327168837,15.097951,17.392052,-14.06805,23.824602,-1.01915,0.3334375,-0.8980125,-6.8726158,109.4914013,31.400001525878906,11.572892,2.089,207.73314
1776327168837,6.01095,23.875051,-21.39195,30.857252,-1.01915,0.3334375,-0.8980125,-6.8726158,109.4914013,31.400001525878906,11.572892,2.089,207.73314
1776327168837,0.381,5.1199503,6.9690003,13.096236,-1.01915,0.3334375,-0.8980125,-6.8726158,109.4914013,31.400001525878906,11.572892,2.089,207.73314
1776327168837,-10.389001,-1.78005,26.914951,25.743462,-1.01915,0.3334375,-0.8980125,-6.8726158,109.4914013,31.400001525878906,11.572892,2.089,207.73314
1776327168837,-14.70705,-6.498,44.752953,43.1916,-1.01915,0.3334375,-0.8980125,-6.8726158,109.4914013,31.400001525878906,11.572892,2.089,207.73314
1776327168837,-5.8240504,0.58095,11.899951,19.247475,-1.01915,0.3334375,-0.8980125,-6.8726158,109.4914013,31.400001525878906,11.572892,2.089,207.73314
1776327168837,-10.767,17.334002,0.84705,20.188179,-1.01915,0.3334375,-0.8980125,-6.8726158,109.4914013,31.400001525878906,11.572892,2.089,207.73314
1776327168838,20.619001,20.872051,-23.06805,33.89512,-1.01915,0.3334375,-0.8980125,-6.8726158,109.4914013,31.400001525878906,11.572892,2.089,207.73314
1776327168838,30.072,22.85205,-34.40895,47.653603,-1.01915,0.3334375,-0.8980125,-6.8726158,109.4914013,31.400001525878906,11.572892,2.089,207.73314
1776327168838,8.089951,14.230051,-7.77405,24.027672,-1.01915,0.3334375,-0.8980125,-6.8726158,109.4914013,31.400001525878906,11.572892,2.089,207.73314
1776327168838,-16.11,6.2910004,18.01695,24.785032,-1.01915,0.3334375,-0.8980125,-6.8726158,109.4914013,31.400001525878906,11.572892,2.089,207.73314
1776327168846,-11.373,-2.4550502,31.76505,32.020084,0.477125,-0.4169,-0.1285625,-6.8726158,109.4914013,31.400001525878906,11.572892,2.089,207.73314
1776327168847,-0.90000004,1.7740501,9.63,14.270672,0.477125,-0.4169,-0.1285625,-6.8726158,109.4914013,31.400001525878906,11.572892,2.089,207.73314
1776327168860,-7.93905,10.98495,0.45495003,13.70305,0.3579125,-0.164725,0.358875,-6.8726158,109.4914013,31.400001525878906,11.572892,2.089,207.73314
1776327168860,5.346,14.709001,-16.084051,20.693993,0.3579125,-0.164725,0.358875,-6.8726158,109.4914013,31.400001525878906,11.572892,2.089,207.73314
1776327168875,7.827,9.976951,1.041,14.317527,-0.1060125,0.1408,0.0290125,-6.8726158,109.4914013,31.400001525878906,11.572892,2.089,207.73314
1776327168875,7.017,12.42405,-1.3600501,14.33019,-0.1060125,0.1408,0.0290125,-6.8726158,109.4914013,31.400001525878906,11.572892,2.089,207.73314
1776327168880,-2.9520001,11.599951,14.899051,18.155352,0.0089375,-0.0507375,-0.279675,-6.8726158,109.4914013,31.400001525878906,11.572892,2.089,207.73314
1776327168880,1.37205,4.959,6.6340504,10.347489,0.0089375,-0.0507375,-0.279675,-6.8726158,109.4914013,31.400001525878906,11.572892,2.089,207.73314
1776327168880,-10.053,10.222951,9.7900505,15.958582,0.0089375,-0.0507375,-0.279675,-6.8726158,109.4914013,31.400001525878906,11.572892,2.089,207.73314
1776327168999,-7.0720506,10.165951,8.346001,15.138698,0.3026375,-0.014575,0.2385625,-6.8726158,109.4914013,31.400001525878906,11.572892,2.089,207.73314
1776327169002,0.57705003,8.19495,2.838,9.981044,-0.471075,0.0853875,-0.4222625,-6.8726158,109.4914013,31.400001525878906,11.572892,2.089,207.73314
1776327169003,4.656,9.76305,1.14705,10.6978855,-0.471075,0.0853875,-0.4222625,-6.8726158,109.4914013,31.400001525878906,11.572892,2.089,207.73314
1776327169003,2.0310001,8.928,0.80700004,9.492852,-0.471075,0.0853875,-0.4222625,-6.8726158,109.4914013,31.400001525878906,11.572892,2.089,207.73314
1776327169003,-6.42,9.253051,16.614,17.955675,-0.471075,0.0853875,-0.4222625,-6.8726158,109.4914013,31.400001525878906,11.572892,2.089,207.73314
1776327169003,2.505,6.1420503,7.209,11.428257,-0.471075,0.0853875,-0.4222625,-6.8726158,109.4914013,31.400001525878906,11.572892,2.089,207.73314
1776327169003,-2.607,13.786951,-0.39495003,13.515112,-0.471075,0.0853875,-0.4222625,-6.8726158,109.4914013,31.400001525878906,11.572892,2.089,207.73314
1776327169003,3.2640002,9.816001,2.14995,11.155426,-0.471075,0.0853875,-0.4222625,-6.8726158,109.4914013,31.400001525878906,11.572892,2.089,207.73314
1776327169003,6.4420505,6.83895,5.1940503,10.8194275,-0.471075,0.0853875,-0.4222625,-6.8726158,109.4914013,31.400001525878906,11.572892,2.089,207.73314
1776327169003,-3.8910003,12.657001,-1.24995,12.804245,-0.471075,0.0853875,-0.4222625,-6.8726158,109.4914013,31.400001525878906,11.572892,2.089,207.73314
1776327169004,-1.065,10.089001,-1.0030501,10.716467,-0.471075,0.0853875,-0.4222625,-6.8726158,109.4914013,31.400001525878906,11.572892,2.089,207.73314
1776327169004,7.5270004,7.0999503,1.1880001,10.475453,-0.471075,0.0853875,-0.4222625,-6.8726158,109.4914013,31.400001525878906,11.572892,2.089,207.73314
1776327169004,1.8270001,9.76095,0.28005,10.042619,-0.471075,0.0853875,-0.4222625,-6.8726158,109.4914013,31.400001525878906,11.572892,2.089,207.73314
1776327169006,-8.35995,9.79695,14.929951,17.782373,0.4750625,-0.6648125,0.212025,-6.8726158,109.4914013,31.400001525878906,11.572892,2.089,207.73314
1776327169020,6.5290504,9.48795,-2.2440002,12.943624,0.346225,-0.0583,0.1705,-6.8726158,109.4914013,31.400001525878906,11.572892,2.089,207.73314
1776327169026,-0.675,9.759001,11.304001,14.547967,0.118525,-0.4104375,0.194975,-6.8726158,109.4914013,31.400001525878906,11.572892,2.089,207.73314
1776327169036,0.87195003,9.98595,1.197,10.985724,0.7964,0.1992375,-0.3158375,-6.8726158,109.4914013,31.400001525878906,11.572892,2.089,207.73314
1776327169046,-1.91295,15.901951,-4.0009503,15.404148,0.02915,-0.0253,0.213125,-6.8726158,109.4914013,31.400001525878906,11.572892,2.089,207.73314
1776327169056,8.272051,8.446051,-0.63405,12.552121,-0.3422375,-0.128425,-0.003025,-6.8726158,109.4914013,31.400001525878906,11.572892,2.089,207.73314
1776327169067,0.91005003,8.476951,5.841,10.778112,-0.036849998,0.0864875,-0.181775,-6.8726158,109.4914013,31.400001525878906,11.572892,2.089,207.73314
1776327169077,-9.94095,9.045,11.500951,16.30695,0.118525,0.3323375,-0.2264625,-6.8726158,109.4914013,31.400001525878906,11.572892,2.089,207.73314
1776327169087,2.9269502,9.831,-6.7699504,13.093512,-0.2519,0.0396,-0.1040875,-6.8726158,109.4914013,31.400001525878906,11.572892,2.089,207.73314
1776327169097,1.8319501,6.86595,4.27005,9.251018,0.329175,-0.162525,-0.087037496,-6.8726158,109.4914013,31.400001525878906,11.572892,2.089,207.73314
1776327169107,1.6189501,7.0360503,-0.076050006,7.6264462,-0.125125,0.09075,-0.212575,-6.8726158,109.4914013,31.400001525878906,11.572892,2.089,207.73314
1776327169117,-3.177,11.526001,3.6070502,11.515775,-0.14973749,0.263175,-0.0859375,-6.8726158,109.4914013,31.400001525878906,11.572892,2.089,207.73314
1776327169127,0.9480001,8.04105,6.0690002,10.39819,-0.3700125,0.1428625,-0.089237496,-6.8726158,109.4914013,31.400001525878906,11.572892,2.089,207.73314
1776327169145,-3.357,8.18505,12.978001,14.64481,0.7825125,-0.2795375,0.12265,-6.8726158,109.4914013,31.400001525878906,11.572892,2.089,207.73314
1776327169151,1.69095,14.874001,-9.967051,17.316452,-0.633875,0.1599125,0.064075,-6.8726158,109.4914013,31.400001525878906,11.572892,2.089,207.73314
1776327169160,0.61095005,9.55305,8.064,13.476469,-0.0240625,-0.246675,0.5270375,-6.8726158,109.4914013,31.400001525878906,11.572892,2.089,207.73314
1776327169171,5.98995,6.9160504,1.18305,10.075737,-0.4082375,0.28655,-0.0477125,-6.8726158,109.4914013,31.400001525878906,11.572892,2.089,207.73314
1776327169180,-8.04405,11.196,9.61995,15.46373,0.2919125,-0.2179375,0.3312375,-6.8726158,109.4914013,31.400001525878906,11.572892,2.089,207.73314
1776327169190,1.2049501,8.70495,0.51495004,10.135165,-0.096525,0.02695,0.02365,-6.8726158,109.4914013,31.400001525878906,11.572892,2.089,207.73314
1776327169203,2.5189502,6.8920503,4.4880004,8.908318,-0.06985,0.097075,-0.2275625,-6.8726158,109.4914013,31.400001525878906,11.572892,2.089,207.73314
1776327169211,-4.36305,8.65695,10.53495,13.2349205,0.3078625,0.1747625,0.1013375,-6.8726158,109.4914013,31.400001525878906,11.572892,2.089,207.73314
1776327169226,3.111,9.571951,-2.8140001,11.007622,0.217525,-0.0380875,0.102437496,-6.8726158,109.4914013,31.400001525878906,11.572892,2.089,207.73314
1776327169231,-0.73395,8.923051,1.0339501,9.411676,0.101475,-0.23705,0.2897125,-6.8726158,109.4914013,31.400001525878906,11.572892,2.089,207.73314
1776327169240,-0.28695002,5.4430504,4.7730002,7.6783705,0.034375,0.31845,-0.1775125,-6.8726158,109.4914013,31.400001525878906,11.572892,2.089,207.73314
1776327169250,0.77295005,10.174951,4.3830004,10.420278,0.4398625,0.21945,0.0077,-6.8726158,109.4914013,31.400001525878906,11.572892,2.089,207.73314
1776327169261,0.45495003,11.02995,6.6550503,12.396192,-0.0974875,0.013062499,0.25025,-6.8726158,109.4914013,31.400001525878906,11.572892,2.089,207.73314
1776327169271,-0.54495,7.8090005,13.77795,15.1563835,0.704825,0.1450625,0.102437496,-6.8726158,109.4914013,31.400001525878906,11.572892,2.089,207.73314
1776327169281,2.433,14.350051,-9.385051,16.885899,-0.5636125,0.182325,0.102437496,-6.8726158,109.4914013,31.400001525878906,11.572892,2.089,207.73314
1776327169291,-2.04195,10.804951,8.13795,14.321191,0.02585,-0.262625,0.636625,-6.8726158,109.4914013,31.400001525878906,11.572892,2.089,207.73314
1776327169301,7.7770505,6.5059505,1.353,11.047754,-0.1241625,0.065175,0.0385,-6.8726158,109.4914013,31.400001525878906,11.572892,2.089,207.73314
1776327169312,-5.8170004,12.003,10.897051,15.988497,0.0886875,-0.00715,0.08965,-6.8726158,109.4914013,31.400001525878906,11.572892,2.089,207.73314
1776327169322,2.28195,6.2520003,-1.194,8.607051,0.4005375,0.1291125,-0.0594,-6.8726158,109.4914013,31.400001525878906,11.572892,2.089,207.73314
1776327169332,4.63905,11.215051,-12.774,15.817611,-0.92235,0.131175,-0.0455125,-6.8726158,109.4914013,31.400001525878906,11.572892,2.089,207.73314
1776327169341,-0.33900002,8.679001,1.164,10.174137,0.0727375,-0.260425,0.4035625,-6.8726158,109.4914013,31.400001525878906,11.572892,2.089,207.73314
1776327169353,3.6430502,6.051,5.7640505,9.3280325,-0.1859,0.374825,-0.344575,-6.8726158,109.4914013,31.400001525878906,11.572892,2.089,207.73314
1776327169361,0.59595,7.2390003,-0.34695002,7.6830235,-0.3370125,-0.358325,-0.261525,-6.8726158,109.4914013,31.400001525878906,11.572892,2.089,207.73314
1776327169372,-9.615001,9.073951,8.248051,14.002626,-0.2294875,-0.07315,0.179025,-6.8726158,109.4914013,31.400001525878906,11.572892,2.089,207.73314
1776327169382,0.63195,8.511001,4.749,10.613929,0.4068625,-0.1337875,0.3471875,-6.8726158,109.4914013,31.400001525878906,11.572892,2.089,207.73314
1776327169392,8.67,11.389951,-4.4419503,14.112936,-0.3018125,0.3141875,-0.2222,-6.8726158,109.4914013,31.400001525878906,11.572892,2.089,207.73314
1776327169402,-0.36600003,9.934051,8.229,13.146486,0.2259125,-0.2817375,-0.04015,-6.8726158,109.4914013,31.400001525878906,11.572892,2.089,207.73314
1776327169412,-1.539,10.55895,-1.491,11.248645,-0.814825,0.3482875,-0.10945,-6.8726158,109.4914013,31.400001525878906,11.572892,2.089,207.73314
1776327169426,-6.29295,12.26595,11.491051,16.607422,-0.039049998,-0.2743125,0.164175,-6.8726158,109.4914013,31.400001525878906,11.572892,2.089,207.73314
1776327169430,7.7910004,5.2969503,8.02305,13.221035,0.2184875,0.7739875,-0.3861,-6.8726158,109.4914013,31.400001525878906,11.572892,2.089,207.73314
1776327169440,-4.1929502,12.357,8.842051,15.2542515,0.1057375,-0.259325,0.1332375,-6.8726158,109.4914013,31.400001525878906,11.572892,2.089,207.73314
1776327169450,-1.4670001,8.40795,0.15495001,9.8799515,-0.5880875,-0.015675,0.3034625,-6.8726158,109.4914013,31.400001525878906,11.572892,2.089,207.73314
1776327169460,2.028,6.729,6.40605,9.583553,0.4984375,0.2481875,0.278025,-6.8726158,109.4914013,31.400001525878906,11.572892,2.089,207.73314
1776327169470,0.34995002,8.167951,-0.25800002,8.460321,-0.3370125,0.7962625,-0.115775,-6.8726158,109.4914013,31.400001525878906,11.572892,2.089,207.73314
1776327169480,-6.1450505,5.6250005,14.628,15.159196,0.1962125,-0.555225,0.357775,-6.8726158,109.4914013,31.400001525878906,11.572892,2.089,207.73314
1776327169490,5.1990004,3.8689501,2.466,8.578992,0.19085,0.36107498,-0.064625,-6.8726158,109.4914013,31.400001525878906,11.572892,2.089,207.73314
1776327169500,-6.2190003,13.299001,4.8229504,14.078328,0.5324,-0.112475,0.38225,-6.8726158,109.4914013,31.400001525878906,11.572892,2.089,207.73314
1776327169510,5.5300503,11.2560005,-5.90805,13.906103,-0.2773375,-0.0380875,0.3067625,-6.8726158,109.4914013,31.400001525878906,11.572892,2.089,207.73314
1776327169520,6.28695,10.67595,1.28805,12.746303,0.0812625,-0.1593625,0.25135,-6.8726158,109.4914013,31.400001525878906,11.572892,2.089,207.73314
1776327169530,-1.18005,9.97395,3.7140002,11.115837,-0.080575,-0.00935,0.081125,-6.8726158,109.4914013,31.400001525878906,11.572892,2.089,207.73314
1776327169541,-4.38705,11.457001,5.15805,12.869919,0.058849998,-0.16995,0.0991375,-6.8726158,109.4914013,31.400001525878906,11.572892,2.089,207.73314
1776327169554,1.8319501,6.86595,7.9560003,11.107973,0.0099,-0.194425,-0.0264,-6.8726158,109.4914013,31.400001525878906,11.572892,2.089,207.73314
1776327169561,1.7910001,9.63195,7.8,12.239887,0.20253749,-0.18493749,0.210925,-6.8726158,109.4914013,31.400001525878906,11.572892,2.089,207.73314
1776327169571,4.30095,12.56595,-4.2340503,13.600117,0.2525875,0.2503875,-0.27115,-6.8726158,109.4914013,31.400001525878906,11.572892,2.089,207.73314
1776327169581,-1.1920501,13.291051,-0.22005,13.396995,-0.19965,-0.0625625,0.131175,-6.8726158,109.4914013,31.400001525878906,11.572892,2.089,207.73314
1776327169591,5.925,6.76695,2.59605,10.168558,0.0545875,0.1343375,0.15345,-6.8726158,109.4914013,31.400001525878906,11.572892,2.089,207.73314
1776327169601,2.3110502,10.1629505,-4.57095,11.138264,-0.31033748,-0.1508375,-0.2105125,-6.8726158,109.4914013,31.400001525878906,11.572892,2.089,207.73314
1776327169611,-11.51895,5.4640503,24.232052,24.132675,0.87945,-0.56265,0.48125,-6.8726158,109.4914013,31.400001525878906,11.572892,2.089,207.73314
1776327169626,10.440001,5.5219502,-10.321951,17.374765,-0.537075,0.0375375,-0.3243625,-6.8726158,109.4914013,31.400001525878906,11.572892,2.089,207.73314
1776327169631,-3.4309502,15.562051,0.33495003,16.226387,-0.537075,0.0375375,-0.3243625,-6.8726158,109.4914013,31.400001525878906,11.572892,2.089,207.73314
1776327169642,3.0180001,9.129001,7.0650005,12.790495,-0.2039125,0.296175,-0.13915,-6.8726158,109.4914013,31.400001525878906,11.572892,2.089,207.73314
1776327169651,1.7530501,9.66495,4.77495,11.295498,0.8399875,-0.277475,-0.146575,-6.8726158,109.4914013,31.400001525878906,11.572892,2.089,207.73314
1776327169662,-1.9729501,19.15695,-14.985001,21.780273,-1.322475,0.2355375,0.0501875,-6.8726158,109.4914013,31.400001525878906,11.572892,2.089,207.73314
1776327169672,-0.48495004,5.97195,21.604952,22.292356,-0.976525,-0.212575,0.1821875,-6.8726158,109.4914013,31.400001525878906,11.572892,2.089,207.73314
1776327169682,5.6449504,5.0880003,5.532,11.978312,0.4995375,-0.1486375,-0.2338875,-6.8726158,109.4914013,31.400001525878906,11.572892,2.089,207.73314
1776327169692,-10.200001,16.68,-3.0000002,18.219944,0.2717,0.2833875,0.0534875,-6.8726158,109.4914013,31.400001525878906,11.572892,2.089,207.73314
1776327169705,3.1519501,5.361,0.27,8.62382,-0.3157,0.130075,0.227975,-6.8726158,109.4914013,31.400001525878906,11.572892,2.089,207.73314
1776327169712,6.55695,8.178,6.62895,11.646579,0.6304375,0.1013375,-0.0572,-6.8726158,109.4914013,31.400001525878906,11.572892,2.089,207.73314
1776327169722,0.32805002,11.713051,-6.9280505,13.219342,-0.69025,0.47808748,-0.2233,-6.8726158,109.4914013,31.400001525878906,11.572892,2.089,207.73314
1776327169732,-7.6579504,9.562051,5.4580503,13.373039,0.1695375,-0.5691125,0.2971375,-6.8726158,109.4914013,31.400001525878906,11.572892,2.089,207.73314
1776327169742,7.5349503,3.73005,2.4430501,9.678938,-0.4593875,0.243925,-0.04015,-6.8726158,109.4914013,31.400001525878906,11.572892,2.089,207.73314
1776327169755,-5.6350503,8.590051,16.282951,17.338171,0.02915,-0.2179375,0.05555,-6.8726158,109.4914013,31.400001525878906,11.572892,2.089,207.73314
1776327169763,-6.6169505,7.656,6.6460505,13.152867,0.5154875,-0.2913625,0.2088625,-6.8726158,109.4914013,31.400001525878906,11.572892,2.089,207.73314
1776327169773,3.4680002,11.814,-7.5409503,14.181188,0.543125,-0.3881625,0.5014625,-6.8726158,109.4914013,31.400001525878906,11.572892,2.089,207.73314
1776327169783,9.501,9.744,-8.281051,15.580877,-0.1337875,0.31845,-0.098725,-6.8726158,109.4914013,31.400001525878906,11.572892,2.089,207.73314
1776327169793,-1.2589501,12.616051,2.91405,13.5236,-0.5456,-0.1923625,0.12265,-6.8726158,109.4914013,31.400001525878906,11.572892,2.089,207.73314
1776327169803,0.58695,9.17895,2.799,10.396048,-0.3199625,-0.114675,0.098175,-6.8726158,109.4914013,31.400001525878906,11.572892,2.089,207.73314
1776327169814,-2.5570502,8.583,7.55595,11.453175,-0.243375,0.3397625,0.2684,-6.8726158,109.4914013,31.400001525878906,11.572892,2.089,207.73314
1776327169827,-2.0760002,7.905,12.946951,14.539321,0.4378,-0.1678875,0.389675,-6.8726158,109.4914013,31.400001525878906,11.572892,2.089,207.73314
1776327169843,6.4090505,7.8520503,-5.75505,12.232284,-0.2880625,-0.1252625,0.1907125,-6.8726158,109.4914013,31.400001525878906,11.572892,2.089,207.73314
1776327169847,-7.8880506,11.751,7.8700504,15.401642,-0.0262625,-0.2211,0.6941,-6.8726158,109.4914013,31.400001525878906,11.572892,2.089,207.73314
1776327169856,3.039,4.9159503,8.89995,11.569803,0.1472625,0.132275,0.056649998,-6.8726158,109.4914013,31.400001525878906,11.572892,2.089,207.73314
1776327169872,6.78,8.05605,-1.0890001,10.782416,0.84645,0.5643,-0.1296625,-6.8726158,109.4914013,31.400001525878906,11.572892,2.089,207.73314
1776327169882,-5.6920505,13.119,-4.7250004,14.205271,-0.7605125,-0.130625,0.324775,-6.8726158,109.4914013,31.400001525878906,11.572892,2.089,207.73314
1776327169892,1.9879501,7.0999503,5.7570004,10.324553,-0.4923875,0.5344625,-0.3509,-6.8726158,109.4914013,31.400001525878906,11.572892,2.089,207.73314
1776327169897,13.49295,6.6859503,-8.620951,15.946292,-0.1964875,0.636625,-0.425425,-6.8726158,109.4914013,31.400001525878906,11.572892,2.089,207.73314
1776327169907,-9.77295,13.9789505,9.81,18.930317,0.2387,-0.4829,0.0501875,-6.8726158,109.4914013,31.400001525878906,11.572892,2.089,207.73314
1776327169917,3.7099502,7.287,-2.1000001,10.539983,-0.4477,0.229075,-0.30305,-6.8726158,109.4914013,31.400001525878906,11.572892,2.089,207.73314
1776327169928,-2.2339501,6.86595,17.337,17.132317,0.5335,-0.17325,0.2088625,-6.8726158,109.4914013,31.400001525878906,11.572892,2.089,207.73314
1776327169936,-0.25995,13.722001,-1.8720001,14.507699,-0.306075,0.2811875,0.0939125,-6.8726158,109.4914013,31.400001525878906,11.572892,2.089,207.73314
1776327169947,-1.2090001,10.2640505,8.964001,13.846222,0.507925,0.1992375,0.2737625,-6.8726158,109.4914013,31.400001525878906,11.572892,2.089,207.73314
1776327169961,4.0279503,7.76595,2.4070501,10.028038,0.133375,0.149325,0.0193875,-6.8726158,109.4914013,31.400001525878906,11.572892,2.089,207.73314
1776327169967,2.62695,12.285001,-7.4380503,13.685244,0.1940125,-0.0572,0.3152875,-6.8726158,109.4914013,31.400001525878906,11.572892,2.089,207.73314
1776327169982,2.50305,11.125951,-2.8639503,12.143575,-0.3955875,0.622875,-0.099825,-6.8726158,109.4914013,31.400001525878906,11.572892,2.089,207.73314
1776327169993,-2.38695,7.3159504,20.737951,20.124514,0.74635,0.018424999,0.0077,-6.8726158,109.4914013,31.400001525878906,11.572892,2.089,207.73314
1776327169997,4.7640004,5.136,4.76805,10.804094,0.5335,0.0386375,-0.2264625,-6.8726158,109.4914013,31.400001525878906,11.572892,2.089,207.73314
1776327170008,-4.83195,17.35095,-9.328051,18.387527,-0.8776625,-0.27115,0.177925,-6.8726158,109.4914013,31.400001525878906,11.572892,2.089,207.73314
1776327170018,-0.40605003,8.167951,8.085,12.877419,-0.211475,0.3674,0.15235,-6.8726158,109.4914013,31.400001525878906,11.572892,2.089,207.73314
1776327170028,7.1989503,4.02,9.89805,12.881418,0.182325,-0.3317875,0.2385625,-6.8726158,109.4914013,31.400001525878906,11.572892,2.089,207.73314
1776327170036,-5.07705,15.364951,-5.64195,16.286186,0.2717,0.5344625,-0.245575,-6.8726158,109.4914013,31.400001525878906,11.572892,2.089,207.73314
1776327170046,-3.4650002,10.585051,2.775,12.439835,-0.1848,-0.458425,0.4312,-6.8726158,109.4914013,31.400001525878906,11.572892,2.089,207.73314
1776327170056,14.34405,5.12895,-0.984,14.700123,0.1684375,0.2982375,-0.228525,-6.8726158,109.4914013,31.400001525878906,11.572892,2.089,207.73314
1776327170065,-1.3740001,16.089,-0.11895001,15.858427,-0.2561625,-0.114675,-0.3084125,-6.8726158,109.4914013,31.400001525878906,11.572892,2.089,207.73314
1776327170076,-5.9749503,11.32005,5.4529505,14.302277,0.001375,-0.376475,0.08965,-6.8726158,109.4914013,31.400001525878906,11.572892,2.089,207.73314
1776327170086,5.5849504,9.177,-0.26295,11.457316,0.2068,-0.0677875,0.131175,-6.8726158,109.4914013,31.400001525878906,11.572892,2.089,207.73314
1776327170096,3.13995,7.6650004,6.4020004,10.666555,-0.17847499,0.45787498,-0.444675,-6.8726158,109.4914013,31.400001525878906,11.572892,2.089,207.73314
1776327170114,-2.1430502,9.79695,-3.9180002,10.746738,0.20047499,-0.3477375,-0.0636625,-6.8726158,109.4914013,31.400001525878906,11.572892,2.089,207.73314
1776327170117,-6.71505,9.58395,6.4879503,12.853739,-0.3529625,0.4280375,0.0012375,-6.8726158,109.4914013,31.400001525878906,11.572892,2.089,207.73314
1776327170126,7.9249506,3.61995,6.564,11.297533,0.397375,0.051425,0.342925,-6.8726158,109.4914013,31.400001525878906,11.572892,2.089,207.73314
1776327170144,2.6580002,10.39305,2.052,10.997147,-0.045375,0.2674375,0.3364625,-6.8726158,109.4914013,31.400001525878906,11.572892,2.089,207.73314
1776327170150,-11.083051,15.055951,7.37895,18.278526,0.2132625,-0.3179,0.3344,-6.8726158,109.4914013,31.400001525878906,11.572892,2.089,207.73314
1776327170161,6.4020004,9.71805,0.45900002,12.972763,0.232375,0.2695,-0.067925,-6.8726158,109.4914013,31.400001525878906,11.572892,2.089,207.73314
1776327170168,12.9210005,10.911,-11.304001,18.867872,-0.49555,0.490875,-0.4296875,-6.8726158,109.4914013,31.400001525878906,11.572892,2.089,207.73314
1776327170179,-12.70695,13.246051,13.951051,22.217978,0.48455,-0.1519375,0.4621375,-6.8726158,109.4914013,31.400001525878906,11.572892,2.089,207.73314
1776327170189,6.945,4.18305,-6.7630506,12.889936,-0.2283875,0.2971375,-0.394625,-6.8726158,109.4914013,31.400001525878906,11.572892,2.089,207.73314
1776327170199,1.161,10.55895,3.1249502,11.436148,-0.3114375,0.309925,-0.0944625,-6.8726158,109.4914013,31.400001525878906,11.572892,2.089,207.73314
1776327170213,-3.5770502,3.10995,15.538951,15.283872,0.6846125,0.02475,-0.21367499,-6.8726158,109.4914013,31.400001525878906,11.572892,2.089,207.73314
1776327170220,-4.49895,10.654051,4.03305,12.855218,0.757075,-0.2305875,0.212025,-6.8726158,109.4914013,31.400001525878906,11.572892,2.089,207.73314
1776327170228,4.7850003,11.884951,-11.995951,16.61215,-0.6785625,0.88989997,0.015125,-6.8726158,109.4914013,31.400001525878906,11.572892,2.089,207.73314
1776327170237,1.15695,4.0080004,16.02,16.565826,-0.1529,-0.179575,0.1183875,-6.8726158,109.4914013,31.400001525878906,11.572892,2.089,207.73314
1776327170248,3.453,10.71,-9.061951,14.87161,-0.34759998,0.4536125,-0.2190375,-6.8726158,109.4914013,31.400001525878906,11.572892,2.089,207.73314
1776327170257,-5.98395,13.093051,3.7360501,14.872389,-0.2646875,-0.1359875,0.2140875,-6.8726158,109.4914013,31.400001525878906,11.572892,2.089,207.73314
1776327170267,5.01,3.2080503,14.478001,15.496566,0.395175,0.31845,-0.1243,-6.8726158,109.4914013,31.400001525878906,11.572892,2.089,207.73314
1776327170278,3.0220501,11.116951,3.9589503,12.844637,0.61765,-0.1508375,0.0055,-6.8726158,109.4914013,31.400001525878906,11.572892,2.089,207.73314
1776327170287,-1.6849501,15.720001,-8.611951,16.971664,-0.452925,0.2003375,0.031075,-6.8726158,109.4914013,31.400001525878906,11.572892,2.089,207.73314
1776327170298,0.58905005,9.493051,7.0750504,12.877669,-0.0581625,-0.1232,0.3034625,-6.8726158,109.4914013,31.400001525878906,11.572892,2.089,207.73314
1776327170308,6.9,7.5859504,-1.9780501,10.930435,-0.208175,0.3366,-0.3573625,-6.8726158,109.4914013,31.400001525878906,11.572892,2.089,207.73314
1776327170318,-7.4209504,12.56295,5.37195,14.624893,-0.23375,-0.294525,0.0831875,-6.8726158,109.4914013,31.400001525878906,11.572892,2.089,207.73314
1776327170338,4.90695,8.877001,-0.60105,11.053568,0.011,0.2418625,-0.0284625,-6.8726158,109.4914013,31.400001525878906,11.572892,2.089,207.73314
1776327170350,-2.5189502,7.0189505,4.31505,9.10328,0.09405,0.083325,-0.120037496,-6.8726158,109.4914013,31.400001525878906,11.572892,2.089,207.73314
1776327170360,-4.20195,10.425,2.9170501,11.110519,0.167475,-0.52965,0.2248125,-6.8726158,109.4914013,31.400001525878906,11.572892,2.089,207.73314
1776327170394,-17.10705,16.089,9.493051,22.48636,0.5687,-0.538175,0.392975,-6.8726158,109.4914013,31.400001525878906,11.572892,2.089,207.73314
1776327170397,7.7449503,12.024,-12.71205,19.805456,0.5687,-0.538175,0.392975,-6.8726158,109.4914013,31.400001525878906,11.572892,2.089,207.73314
1776327170401,20.476952,6.28095,-28.375952,32.402756,0.5644375,-0.606375,0.537625,-6.8726158,109.4914013,31.400001525878906,11.572892,2.089,207.73314
1776327170410,13.6369505,9.7560005,-18.312,26.343689,0.1194875,0.0418,0.177925,-6.8726158,109.4914013,31.400001525878906,11.572892,2.089,207.73314
1776327170416,1.71,14.6640005,2.6460001,17.267628,-0.863775,0.3738625,-0.3658875,-6.8726158,109.4914013,31.400001525878906,11.572892,2.089,207.73314
1776327170417,-6.4030504,7.7419505,16.681051,19.031857,-0.863775,0.3738625,-0.3658875,-6.8726158,109.4914013,31.400001525878906,11.572892,2.089,207.73314
1776327170426,-5.9680505,0.47295,22.077002,22.105843,-0.59345,0.5302,-0.2094125,-6.8726158,109.4914013,31.400001525878906,11.572892,2.089,207.73314
1776327170428,-2.8590002,4.8250504,15.024001,17.250525,0.9942625,-0.226325,-0.0264,-6.8726158,109.4914013,31.400001525878906,11.572892,2.089,207.73314
1776327170431,-0.86895007,11.689051,-10.24995,15.906761,0.16005,-0.2338875,-0.0605,-6.8726158,109.4914013,31.400001525878906,11.572892,2.089,207.73314
1776327170436,4.761,15.021001,-18.47895,22.609484,-0.521125,0.2014375,-0.1285625,-6.8726158,109.4914013,31.400001525878906,11.572892,2.089,207.73314
1776327170446,-0.56700003,9.11205,-6.2260504,13.362337,-0.751025,0.2396625,-0.017875,-6.8726158,109.4914013,31.400001525878906,11.572892,2.089,207.73314
1776327170452,-6.6930003,6.9040504,17.99595,18.995535,-0.751025,0.2396625,-0.017875,-6.8726158,109.4914013,31.400001525878906,11.572892,2.089,207.73314
1776327170456,0.55095005,7.9600506,14.146951,16.792698,0.4250125,-0.1656875,0.1588125,-6.8726158,109.4914013,31.400001525878906,11.572892,2.089,207.73314
1776327170456,11.074051,5.064,-8.226001,15.114615,0.4250125,-0.1656875,0.1588125,-6.8726158,109.4914013,31.400001525878906,11.572892,2.089,207.73314
1776327170462,8.718,8.961,-9.517051,15.592788,0.061049998,0.1716,-0.17215,-6.8726158,109.4914013,31.400001525878906,11.572892,2.089,207.73314
1776327170483,-6.7170005,14.7640505,3.6420002,16.417807,-0.176275,0.5867125,-0.33825,-6.8726158,109.4914013,31.400001525878906,11.572892,2.089,207.73314
1776327170484,-10.810051,17.470951,6.078,20.423615,-0.176275,0.5867125,-0.33825,-6.8726158,109.4914013,31.400001525878906,11.572892,2.089,207.73314
1776327170484,-1.2780001,5.8050003,6.43695,11.094004,-0.176275,0.5867125,-0.33825,-6.8726158,109.4914013,31.400001525878906,11.572892,2.089,207.73314
1776327170485,1.542,-0.22305001,21.607052,19.549324,0.23127499,0.377025,0.0864875,-6.8726158,109.4914013,31.400001525878906,11.572892,2.089,207.73314
1776327170487,-1.52205,4.2330003,27.063002,25.857307,0.23127499,0.377025,0.0864875,-6.8726158,109.4914013,31.400001525878906,11.572892,2.089,207.73314
1776327170492,0.55305004,14.464951,4.7389503,17.356655,0.8932,-0.1901625,-0.04015,-6.8726158,109.4914013,31.400001525878906,11.572892,2.089,207.73314
1776327170501,3.7189503,12.58695,-14.779051,19.283878,0.5537125,0.064075,0.0045375,-6.8726158,109.4914013,31.400001525878906,11.572892,2.089,207.73314
1776327170503,-4.01805,12.654,8.775001,16.58832,-0.06875,-0.0837375,-0.0540375,-6.8726158,109.4914013,31.400001525878906,11.572892,2.089,207.73314
1776327170519,-16.230001,16.812,21.022951,28.463902,-0.06875,-0.0837375,-0.0540375,-6.8726158,109.4914013,31.400001525878906,11.572892,2.089,207.73314
1776327170519,5.1160502,9.02805,-4.2769504,14.67176,-0.06875,-0.0837375,-0.0540375,-6.8726158,109.4914013,31.400001525878906,11.572892,2.089,207.73314
1776327170519,22.659,8.391001,-21.886951,29.015797,-0.06875,-0.0837375,-0.0540375,-6.8726158,109.4914013,31.400001525878906,11.572892,2.089,207.73314
1776327170524,14.782051,13.288951,-17.74905,27.121832,-0.2699125,0.473825,-0.3551625,-6.8726158,109.4914013,31.400001525878906,11.572892,2.089,207.73314
1776327170527,1.6639501,17.86095,-2.835,19.953114,-0.2699125,0.473825,-0.3551625,-6.8726158,109.4914013,31.400001525878906,11.572892,2.089,207.73314
1776327170532,-5.151,14.55405,7.8100505,17.832012,-0.650925,0.2844875,-0.3147375,-6.8726158,109.4914013,31.400001525878906,11.572892,2.089,207.73314
1776327170537,-2.0040002,-1.047,8.112,10.303371,-0.5126,0.12485,-0.0699875,-6.8726158,109.4914013,31.400001525878906,11.572892,2.089,207.73314
1776327170548,-3.3280501,1.45305,19.785002,18.15308,0.61765,0.163075,-0.1892,-6.8726158,109.4914013,31.400001525878906,11.572892,2.089,207.73314
1776327170553,-11.878051,10.17105,11.515051,19.16658,0.61765,0.163075,-0.1892,-6.8726158,109.4914013,31.400001525878906,11.572892,2.089,207.73314
1776327170558,-0.73395,8.743051,-6.5020504,12.569677,0.3718,-0.3977875,0.102437496,-6.8726158,109.4914013,31.400001525878906,11.572892,2.089,207.73314
1776327170563,6.3559504,7.1340003,2.8590002,10.492545,-0.3433375,-0.0763125,0.0449625,-6.8726158,109.4914013,31.400001525878906,11.572892,2.089,207.73314
1776327170574,-7.1599503,5.14095,17.71095,17.925009,0.1408,-0.6116,0.1502875,-6.8726158,109.4914013,31.400001525878906,11.572892,2.089,207.73314
1776327170576,1.7389501,9.15795,14.656951,17.481033,0.1408,-0.6116,0.1502875,-6.8726158,109.4914013,31.400001525878906,11.572892,2.089,207.73314
1776327170584,12.35595,4.0680003,-3.8700001,14.353685,0.41854998,0.1109625,-0.27115,-6.8726158,109.4914013,31.400001525878906,11.572892,2.089,207.73314
1776327170585,3.48705,8.923051,-6.70305,12.224624,0.41854998,0.1109625,-0.27115,-6.8726158,109.4914013,31.400001525878906,11.572892,2.089,207.73314
1776327170594,-4.84905,17.44005,1.29495,16.963228,0.362175,0.639925,-0.130625,-6.8726158,109.4914013,31.400001525878906,11.572892,2.089,207.73314
1776327170594,-5.88105,18.595951,-8.422951,20.3885,0.3408625,-0.1519375,-0.0859375,-6.8726158,109.4914013,31.400001525878906,11.572892,2.089,207.73314
1776327170598,6.2959504,9.403951,-15.889951,19.684137,-0.0985875,-0.0625625,0.3205125,-6.8726158,109.4914013,31.400001525878906,11.572892,2.089,207.73314
1776327170602,9.784051,3.9120002,-3.93405,12.9348955,-0.49981248,0.0418,0.0427625,-6.8726158,109.4914013,31.400001525878906,11.572892,2.089,207.73314
1776327170612,-0.97095007,11.713051,10.629001,15.264239,-0.2965875,0.2068,-0.229625,-6.8726158,109.4914013,31.400001525878906,11.572892,2.089,207.73314
1776327170620,2.84505,12.4480505,4.6000504,13.91073,0.2344375,0.2003375,0.0512875,-6.8726158,109.4914013,31.400001525878906,11.572892,2.089,207.73314
1776327170634,5.8819504,5.09595,1.29495,9.093682,-0.4497625,-0.0763125,-0.20735,-6.8726158,109.4914013,31.400001525878906,11.572892,2.089,207.73314
1776327170634,-3.0000002,2.2740002,16.44405,15.314285,0.428175,0.279125,-0.30621248,-6.8726158,109.4914013,31.400001525878906,11.572892,2.089,207.73314
1776327170634,-11.845051,10.477051,20.305052,23.65208,0.428175,0.279125,-0.30621248,-6.8726158,109.4914013,31.400001525878906,11.572892,2.089,207.73314
1776327170635,-8.901,20.409,1.2400501,22.570465,0.428175,0.279125,-0.30621248,-6.8726158,109.4914013,31.400001525878906,11.572892,2.089,207.73314
1776327170638,4.1460004,10.563001,-13.34895,18.53033,0.2770625,-0.2721125,0.2706,-6.8726158,109.4914013,31.400001525878906,11.572892,2.089,207.73314
1776327170643,9.40305,3.8550003,6.9,13.532996,0.1706375,-8.25E-4,-0.149875,-6.8726158,109.4914013,31.400001525878906,11.572892,2.089,207.73314
1776327170649,0.024,8.31705,11.944051,14.350221,0.773025,-0.039049998,0.12045,-6.8726158,109.4914013,31.400001525878906,11.572892,2.089,207.73314
1776327170652,8.943001,10.67595,-9.217951,16.230854,0.773025,-0.039049998,0.12045,-6.8726158,109.4914013,31.400001525878906,11.572892,2.089,207.73314
1776327170663,11.809951,13.344001,-22.51695,26.218159,-0.36574998,0.703725,-0.375375,-6.8726158,109.4914013,31.400001525878906,11.572892,2.089,207.73314
1776327170665,-3.9799502,11.91705,-9.77805,17.980133,-0.36574998,0.703725,-0.375375,-6.8726158,109.4914013,31.400001525878906,11.572892,2.089,207.73314
1776327170668,-11.401951,13.167001,14.611951,21.784084,-0.7275125,0.165275,-0.2168375,-6.8726158,109.4914013,31.400001525878906,11.572892,2.089,207.73314
1776327170674,-4.00605,5.56995,7.9560003,12.7614155,-0.00495,-0.2476375,0.1694,-6.8726158,109.4914013,31.400001525878906,11.572892,2.089,207.73314
1776327170676,10.606951,-2.4090002,-5.7829504,12.407335,-0.00495,-0.2476375,0.1694,-6.8726158,109.4914013,31.400001525878906,11.572892,2.089,207.73314
1776327170683,8.059051,5.95305,2.706,10.784124,0.148225,0.6601375,-0.3531,-6.8726158,109.4914013,31.400001525878906,11.572892,2.089,207.73314
1776327170696,-6.8269506,12.811951,5.5200005,14.581929,0.004675,0.147125,-0.3647875,-6.8726158,109.4914013,31.400001525878906,11.572892,2.089,207.73314
1776327170697,0.73005,9.60795,3.492,11.115498,-0.226325,-0.0922625,-0.07645,-6.8726158,109.4914013,31.400001525878906,11.572892,2.089,207.73314
1776327170701,0.37605003,4.425,11.57205,12.139047,-0.3433375,0.3249125,-0.1912625,-6.8726158,109.4914013,31.400001525878906,11.572892,2.089,207.73314
1776327170704,-12.670951,6.86805,19.941002,22.11117,-0.1794375,0.0364375,-0.2572625,-6.8726158,109.4914013,31.400001525878906,11.572892,2.089,207.73314
1776327170715,1.899,11.265,9.474,16.295246,0.593175,-0.3614875,0.225775,-6.8726158,109.4914013,31.400001525878906,11.572892,2.089,207.73314
1776327170718,11.07705,10.420051,-21.24105,24.158209,0.9326625,-0.179575,0.073699996,-6.8726158,109.4914013,31.400001525878906,11.572892,2.089,207.73314
1776327170722,9.087001,15.673951,-20.805,26.901993,-0.1082125,-0.130625,-0.2509375,-6.8726158,109.4914013,31.400001525878906,11.572892,2.089,207.73314
1776327170731,-2.6460001,12.946051,3.42195,16.30007,-0.87436247,0.001375,-0.2008875,-6.8726158,109.4914013,31.400001525878906,11.572892,2.089,207.73314
1776327170735,-10.362,13.720051,28.009052,29.552132,-0.87436247,0.001375,-0.2008875,-6.8726158,109.4914013,31.400001525878906,11.572892,2.089,207.73314
1776327170740,-2.358,3.89595,12.77505,16.7604,0.09185,-0.0774125,0.1013375,-6.8726158,109.4914013,31.400001525878906,11.572892,2.089,207.73314
1776327170745,12.295951,4.9999504,1.149,14.010715,0.2589125,-0.2998875,0.0757625,-6.8726158,109.4914013,31.400001525878906,11.572892,2.089,207.73314
1776327170747,-1.98705,13.756051,2.364,14.08089,0.313225,0.3460875,-0.3084125,-6.8726158,109.4914013,31.400001525878906,11.572892,2.089,207.73314
1776327170752,-7.0069504,15.508951,1.2210001,16.46587,0.133375,0.08965,-0.1923625,-6.8726158,109.4914013,31.400001525878906,11.572892,2.089,207.73314
1776327170764,5.43405,10.747951,2.3440502,13.108816,-0.274175,-0.0625625,-0.043449998,-6.8726158,109.4914013,31.400001525878906,11.572892,2.089,207.73314
1776327170764,-4.1350503,2.2480502,6.39195,8.97204,-0.274175,-0.0625625,-0.043449998,-6.8726158,109.4914013,31.400001525878906,11.572892,2.089,207.73314
1776327170766,-4.45905,10.242001,23.848951,22.862743,-0.274175,-0.0625625,-0.043449998,-6.8726158,109.4914013,31.400001525878906,11.572892,2.089,207.73314
1776327170769,0.93405,12.754951,10.39395,17.756672,0.6920375,-0.0253,0.102437496,-6.8726158,109.4914013,31.400001525878906,11.572892,2.089,207.73314
1776327170774,5.142,9.246,-10.84395,15.671267,-0.374275,0.0088,-0.07535,-6.8726158,109.4914013,31.400001525878906,11.572892,2.089,207.73314
1776327170780,7.5940504,10.20195,2.7490501,13.543685,0.0482625,0.6164125,-0.3509,-6.8726158,109.4914013,31.400001525878906,11.572892,2.089,207.73314
1776327170784,-12.288,11.46195,18.142052,22.491644,0.0482625,0.6164125,-0.3509,-6.8726158,109.4914013,31.400001525878906,11.572892,2.089,207.73314
1776327170796,-5.9680505,10.774051,7.4550004,16.015963,0.2855875,-0.407275,0.2035,-6.8726158,109.4914013,31.400001525878906,11.572892,2.089,207.73314
1776327170798,13.12005,2.739,-13.720051,18.5473,0.5707625,-0.278575,0.2300375,-6.8726158,109.4914013,31.400001525878906,11.572892,2.089,207.73314
1776327170801,5.83395,8.767051,-11.56995,16.225304,0.2706,0.2481875,-0.17325,-6.8726158,109.4914013,31.400001525878906,11.572892,2.089,207.73314
1776327170808,-2.5500002,17.74395,-2.5860002,17.734509,0.165275,0.1408,-0.067925,-6.8726158,109.4914013,31.400001525878906,11.572892,2.089,207.73314
1776327170816,3.1680002,8.335951,-8.587951,13.451316,-0.62535,0.0204875,0.029975,-6.8726158,109.4914013,31.400001525878906,11.572892,2.089,207.73314
1776327170821,12.47805,-2.32095,-2.5120502,13.040882,-0.1634875,0.2844875,-0.3647875,-6.8726158,109.4914013,31.400001525878906,11.572892,2.089,207.73314
1776327170834,0.28500003,-4.4040003,6.2050505,8.699697,-0.1634875,0.2844875,-0.3647875,-6.8726158,109.4914013,31.400001525878906,11.572892,2.089,207.73314
1776327170834,-6.1759505,13.420951,12.894001,17.427275,-0.1634875,0.2844875,-0.3647875,-6.8726158,109.4914013,31.400001525878906,11.572892,2.089,207.73314
1776327170836,-7.3609505,14.845951,-2.62695,16.907509,0.5047625,0.161975,-0.215875,-6.8726158,109.4914013,31.400001525878906,11.572892,2.089,207.73314
1776327170843,-2.3800502,9.226951,9.699,14.25891,-0.6818625,-0.23595,-0.015675,-6.8726158,109.4914013,31.400001525878906,11.572892,2.089,207.73314
1776327170853,-2.11905,1.23,27.142052,24.653717,1.2423126,-0.522225,-0.049775,-6.8726158,109.4914013,31.400001525878906,11.572892,2.089,207.73314
1776327170853,1.7149501,3.453,12.327001,15.263424,1.2423126,-0.522225,-0.049775,-6.8726158,109.4914013,31.400001525878906,11.572892,2.089,207.73314
1776327170869,10.500001,10.618951,-19.114052,22.457577,-0.3221625,0.3909125,-0.41593748,-6.8726158,109.4914013,31.400001525878906,11.572892,2.089,207.73314
1776327170869,9.634951,15.904051,-35.81895,36.77792,-0.3221625,0.3909125,-0.41593748,-6.8726158,109.4914013,31.400001525878906,11.572892,2.089,207.73314
1776327170871,-2.049,23.37705,-19.701,31.867645,-1.1606375,0.28545,-0.1296625,-6.8726158,109.4914013,31.400001525878906,11.572892,2.089,207.73314
1776327170871,-8.425051,18.711,6.7819505,23.663116,-1.1606375,0.28545,-0.1296625,-6.8726158,109.4914013,31.400001525878906,11.572892,2.089,207.73314
1776327170877,1.7890501,-0.39495003,17.07405,18.470278,-1.1862125,-0.1571625,0.1918125,-6.8726158,109.4914013,31.400001525878906,11.572892,2.089,207.73314
1776327170882,9.77595,-3.834,23.20005,24.06676,0.8166125,0.25465,-0.484,-6.8726158,109.4914013,31.400001525878906,11.572892,2.089,207.73314
1776327170886,-5.9820004,11.767951,13.498051,19.917606,0.8166125,0.25465,-0.484,-6.8726158,109.4914013,31.400001525878906,11.572892,2.089,207.73314
1776327170903,-5.9359503,21.208952,-8.808001,22.95948,-0.72325,0.0598125,-0.149875,-6.8726158,109.4914013,31.400001525878906,11.572892,2.089,207.73314
1776327170904,5.1060004,10.90095,-11.625001,17.979477,-0.72325,0.0598125,-0.149875,-6.8726158,109.4914013,31.400001525878906,11.572892,2.089,207.73314
1776327170906,-0.93795,4.80105,4.7590504,9.055764,-0.72325,0.0598125,-0.149875,-6.8726158,109.4914013,31.400001525878906,11.572892,2.089,207.73314
1776327170914,-5.5360503,7.7539506,17.229,17.561405,0.182325,-0.23705,-0.043449998,-6.8726158,109.4914013,31.400001525878906,11.572892,2.089,207.73314
1776327170918,-0.813,10.95405,7.8190503,14.2986355,0.182325,-0.23705,-0.043449998,-6.8726158,109.4914013,31.400001525878906,11.572892,2.089,207.73314
1776327170922,6.0160503,10.156051,-0.58905005,12.314807,0.150425,-0.1241625,0.113025,-6.8726158,109.4914013,31.400001525878906,11.572892,2.089,207.73314
1776327170928,-0.162,7.2769504,2.706,8.675346,-0.1219625,0.2003375,-0.1263625,-6.8726158,109.4914013,31.400001525878906,11.572892,2.089,207.73314
1776327170931,-0.37305,14.539051,10.566001,16.11647,0.5781875,0.1417625,0.0939125,-6.8726158,109.4914013,31.400001525878906,11.572892,2.089,207.73314
1776327170936,2.0719502,13.300951,-5.65395,14.903717,0.5781875,0.1417625,0.0939125,-6.8726158,109.4914013,31.400001525878906,11.572892,2.089,207.73314
1776327170947,6.3349504,7.689,-11.052001,14.884331,-0.8190875,0.374825,-0.179575,-6.8726158,109.4914013,31.400001525878906,11.572892,2.089,207.73314
1776327170955,2.079,7.7470503,18.630001,19.203579,-0.1518,0.31955,-0.20515,-6.8726158,109.4914013,31.400001525878906,11.572892,2.089,207.73314
1776327170957,-17.310001,5.92395,29.014952,31.28196,0.2387,-0.3859625,0.18755,-6.8726158,109.4914013,31.400001525878906,11.572892,2.089,207.73314
1776327170960,-3.4360502,4.32,18.88005,21.992722,0.8718875,-0.0284625,0.164175,-6.8726158,109.4914013,31.400001525878906,11.572892,2.089,207.73314
1776327170961,6.8809505,3.5989501,-0.63405,10.63146,0.8718875,-0.0284625,0.164175,-6.8726158,109.4914013,31.400001525878906,11.572892,2.089,207.73314
1776327170966,-4.48995,7.80705,-11.790001,13.995279,0.6782875,0.02585,-0.1189375,-6.8726158,109.4914013,31.400001525878906,11.572892,2.089,207.73314
1776327170971,0.59400004,18.61305,-2.63595,17.845581,0.1078,-0.2721125,0.0427625,-6.8726158,109.4914013,31.400001525878906,11.572892,2.089,207.73314
1776327170985,-1.25205,10.38105,-4.3320003,12.62362,-0.455125,-0.0433125,0.242825,-6.8726158,109.4914013,31.400001525878906,11.572892,2.089,207.73314
1776327170987,5.4409504,0.54705,5.3430004,8.640977,-0.06985,0.0407,0.0661375,-6.8726158,109.4914013,31.400001525878906,11.572892,2.089,207.73314
1776327170987,9.76395,1.35,14.22105,15.570635,-0.06985,0.0407,0.0661375,-6.8726158,109.4914013,31.400001525878906,11.572892,2.089,207.73314
1776327170993,-3.2280002,12.831,2.4139502,13.873508,0.705925,0.013062499,-0.313775,-6.8726158,109.4914013,31.400001525878906,11.572892,2.089,207.73314
1776327170997,1.8919501,14.28495,-12.087001,17.820974,0.65065,-0.00605,0.0609125,-6.8726158,109.4914013,31.400001525878906,11.572892,2.089,207.73314
1776327171001,4.584,11.0779505,-16.333052,19.772888,0.0375375,-0.0944625,-0.1775125,-6.8726158,109.4914013,31.400001525878906,11.572892,2.089,207.73314
1776327171007,-5.86005,15.523951,-9.735001,19.345037,-0.110275,0.0108624995,-0.2935625,-6.8726158,109.4914013,31.400001525878906,11.572892,2.089,207.73314
1776327171017,-0.72,18.445051,-0.39705002,18.639702,-0.24653749,-0.041249998,0.1588125,-6.8726158,109.4914013,31.400001525878906,11.572892,2.089,207.73314
1776327171028,5.0269504,8.42895,2.193,11.7728815,-0.89045,-0.5190625,0.0088,-6.8726158,109.4914013,31.400001525878906,11.572892,2.089,207.73314
1776327171029,7.0360503,-2.87595,20.28795,19.686684,-0.9361,0.2057,-0.003025,-6.8726158,109.4914013,31.400001525878906,11.572892,2.089,207.73314
1776327171031,-1.00995,5.0070004,25.477951,24.725271,-1.265,0.296175,0.09075,-6.8726158,109.4914013,31.400001525878906,11.572892,2.089,207.73314
1776327171031,-10.329,20.608051,-7.2250504,24.270998,-1.265,0.296175,0.09075,-6.8726158,109.4914013,31.400001525878906,11.572892,2.089,207.73314
1776327171031,0.88095003,23.434052,-27.007952,33.468716,-1.265,0.296175,0.09075,-6.8726158,109.4914013,31.400001525878906,11.572892,2.089,207.73314
1776327171031,4.03305,13.255051,-12.468,21.604956,-1.265,0.296175,0.09075,-6.8726158,109.4914013,31.400001525878906,11.572892,2.089,207.73314
1776327171032,-1.506,1.63995,14.3220005,15.916224,-1.265,0.296175,0.09075,-6.8726158,109.4914013,31.400001525878906,11.572892,2.089,207.73314
1776327171037,4.99305,2.799,29.262001,27.036526,-0.748825,-0.2902625,0.0694375,-6.8726158,109.4914013,31.400001525878906,11.572892,2.089,207.73314
1776327171045,-0.55695003,3.6319501,15.712951,18.31679,0.242,0.2151875,-0.1381875,-6.8726158,109.4914013,31.400001525878906,11.572892,2.089,207.73314
1776327171048,-7.83795,4.2670503,8.871,13.729883,0.4026,-0.0625625,-0.0540375,-6.8726158,109.4914013,31.400001525878906,11.572892,2.089,207.73314
1776327171054,-8.500951,17.41995,12.580951,21.23275,0.8559375,0.12155,0.21835,-6.8726158,109.4914013,31.400001525878906,11.572892,2.089,207.73314
1776327171057,-12.628051,16.462051,-8.596951,22.213175,-0.4178625,-0.75528747,0.5919375,-6.8726158,109.4914013,31.400001525878906,11.572892,2.089,207.73314
1776327171062,9.405001,9.802051,-12.946951,19.45533,-0.4178625,-0.75528747,0.5919375,-6.8726158,109.4914013,31.400001525878906,11.572892,2.089,207.73314
1776327171067,14.610001,2.67705,7.8480005,17.330349,-0.3487,0.5259375,-0.0199375,-6.8726158,109.4914013,31.400001525878906,11.572892,2.089,207.73314
1776327171072,-5.73495,3.6010501,26.067001,25.011868,0.61765,-0.374275,0.2162875,-6.8726158,109.4914013,31.400001525878906,11.572892,2.089,207.73314
1776327171082,3.5160003,11.92395,16.62105,21.606995,1.17315,0.083325,0.0427625,-6.8726158,109.4914013,31.400001525878906,11.572892,2.089,207.73314
1776327171082,9.024,10.626,-19.42995,23.4524,1.17315,0.083325,0.0427625,-6.8726158,109.4914013,31.400001525878906,11.572892,2.089,207.73314
1776327171089,-1.2060001,18.462002,-18.570002,25.66124,0.09075,-0.091299996,-0.253,-6.8726158,109.4914013,31.400001525878906,11.572892,2.089,207.73314
1776327171092,-7.1580005,21.291,6.591,23.85951,-0.5083375,-0.17325,0.1013375,-6.8726158,109.4914013,31.400001525878906,11.572892,2.089,207.73314
1776327171097,-7.017,7.701,4.7730002,13.939679,-0.5083375,-0.17325,0.1013375,-6.8726158,109.4914013,31.400001525878906,11.572892,2.089,207.73314
1776327171103,8.43795,0.69795,18.712051,19.218678,-0.95425,-0.5137,0.31955,-6.8726158,109.4914013,31.400001525878906,11.572892,2.089,207.73314
1776327171115,-0.19605,-1.4680501,28.82805,26.936592,0.3834875,0.1269125,-0.04015,-6.8726158,109.4914013,31.400001525878906,11.572892,2.089,207.73314
1776327171120,-5.41905,10.362,16.966051,21.87167,0.769725,-0.2242625,-0.0562375,-6.8726158,109.4914013,31.400001525878906,11.572892,2.089,207.73314
1776327171122,6.8380504,14.589001,-13.93395,21.415516,0.509025,0.1513875,-0.133925,-6.8726158,109.4914013,31.400001525878906,11.572892,2.089,207.73314
1776327171126,2.1649501,12.208951,-25.164001,26.725529,0.509025,0.1513875,-0.133925,-6.8726158,109.4914013,31.400001525878906,11.572892,2.089,207.73314
1776327171139,-9.43995,12.004951,-3.15105,17.819992,-0.587125,0.2492875,-0.097625,-6.8726158,109.4914013,31.400001525878906,11.572892,2.089,207.73314
1776327171139,-5.8500004,11.737051,14.827051,19.399601,-0.5137,-0.36905,0.245025,-6.8726158,109.4914013,31.400001525878906,11.572892,2.089,207.73314
1776327171141,7.39095,6.0340505,1.72395,11.636535,-0.044275,0.016224999,-0.0284625,-6.8726158,109.4914013,31.400001525878906,11.572892,2.089,207.73314
1776327171141,18.67905,2.52795,-9.86205,19.346027,-0.044275,0.016224999,-0.0284625,-6.8726158,109.4914013,31.400001525878906,11.572892,2.089,207.73314
1776327171153,7.5709505,9.32295,1.9990501,13.609281,-0.044275,0.016224999,-0.0284625,-6.8726158,109.4914013,31.400001525878906,11.572892,2.089,207.73314
1776327171154,-12.633,17.073,5.70195,20.314442,0.35475,0.243925,-0.164725,-6.8726158,109.4914013,31.400001525878906,11.572892,2.089,207.73314
1776327171156,-8.68305,17.01795,-0.67200005,19.356445,-0.1879625,-0.409475,0.029975,-6.8726158,109.4914013,31.400001525878906,11.572892,2.089,207.73314
1776327171160,-2.2429502,12.240001,-4.998,14.5993,-0.1879625,-0.409475,0.029975,-6.8726158,109.4914013,31.400001525878906,11.572892,2.089,207.73314
1776327171165,1.4419501,3.4120502,7.93905,9.928418,-0.439175,-0.1104125,0.3034625,-6.8726158,109.4914013,31.400001525878906,11.572892,2.089,207.73314
1776327171170,4.73505,9.535951,19.69095,19.89369,-0.4838625,-0.1881,0.3216125,-6.8726158,109.4914013,31.400001525878906,11.572892,2.089,207.73314
1776327171176,3.79395,8.274,2.89995,11.621265,0.0664125,-0.21573749,0.0620125,-6.8726158,109.4914013,31.400001525878906,11.572892,2.089,207.73314
1776327171184,6.1480503,4.51095,-5.6010003,9.893387,-0.29975,0.2088625,-0.1903,-6.8726158,109.4914013,31.400001525878906,11.572892,2.089,207.73314
1776327171198,-11.2890005,14.989051,17.75205,22.6436,-0.29975,0.2088625,-0.1903,-6.8726158,109.4914013,31.400001525878906,11.572892,2.089,207.73314
1776327171198,-20.172,14.6640005,9.052951,25.753588,0.069575,0.2503875,-0.2882,-6.8726158,109.4914013,31.400001525878906,11.572892,2.089,207.73314
1776327171201,10.04205,6.0870004,-11.59395,18.35227,0.540925,-0.605275,0.587675,-6.8726158,109.4914013,31.400001525878906,11.572892,2.089,207.73314
1776327171206,15.991051,3.6850502,-10.803,19.387922,0.02585,-0.5350125,0.5812125,-6.8726158,109.4914013,31.400001525878906,11.572892,2.089,207.73314
1776327171211,-5.874,4.4110503,13.917001,16.466955,-0.4125,0.3579125,-0.01155,-6.8726158,109.4914013,31.400001525878906,11.572892,2.089,207.73314
1776327171216,-7.2319503,12.493951,24.08205,25.755377,-0.49445,0.280225,-0.014712499,-6.8726158,109.4914013,31.400001525878906,11.572892,2.089,207.73314
1776327171235,2.60295,8.415,-9.024,15.239331,0.0174625,0.0386375,0.082225,-6.8726158,109.4914013,31.400001525878906,11.572892,2.089,207.73314
1776327171236,6.6439505,9.964951,-18.249,20.510391,0.0174625,0.0386375,0.082225,-6.8726158,109.4914013,31.400001525878906,11.572892,2.089,207.73314
1776327171236,2.052,14.374051,2.9220002,15.950782,0.0174625,0.0386375,0.082225,-6.8726158,109.4914013,31.400001525878906,11.572892,2.089,207.73314
1776327171238,-4.7800503,9.92895,-1.3930501,12.076048,-0.3689125,-0.327525,0.2215125,-6.8726158,109.4914013,31.400001525878906,11.572892,2.089,207.73314
1776327171242,7.3410006,10.192051,-2.7250502,12.697438,-0.3689125,-0.327525,0.2215125,-6.8726158,109.4914013,31.400001525878906,11.572892,2.089,207.73314
1776327171249,2.29005,10.432051,0.67005,11.100646,-0.117699996,0.2344375,0.1343375,-6.8726158,109.4914013,31.400001525878906,11.572892,2.089,207.73314
1776327171254,-6.9970503,9.213,7.3669505,13.192387,-0.356125,0.1524875,0.1109625,-6.8726158,109.4914013,31.400001525878906,11.572892,2.089,207.73314
1776327171263,9.345,14.050951,7.4740505,17.403187,-0.0837375,-0.3488375,0.3205125,-6.8726158,109.4914013,31.400001525878906,11.572892,2.089,207.73314
1776327171267,2.8210502,7.9240503,-9.49995,13.631435,0.2344375,0.2376,0.012925,-6.8726158,109.4914013,31.400001525878906,11.572892,2.089,207.73314
1776327171273,-4.84905,10.791,9.738001,14.984512,-0.5753,0.341825,0.095975,-6.8726158,109.4914013,31.400001525878906,11.572892,2.089,207.73314
1776327171279,-11.634001,5.8879504,29.692951,28.94071,-0.5753,0.341825,0.095975,-6.8726158,109.4914013,31.400001525878906,11.572892,2.089,207.73314
1776327171284,-8.956051,7.9549503,17.92605,23.036175,0.313225,-0.2222,0.3397625,-6.8726158,109.4914013,31.400001525878906,11.572892,2.089,207.73314
1776327171290,7.8220506,7.9909506,-9.826051,16.515984,0.8006625,-0.3711125,0.5919375,-6.8726158,109.4914013,31.400001525878906,11.572892,2.089,207.73314
1776327171302,6.9930005,7.4119506,-5.874,12.712739,0.55165,0.23127499,0.5962,-6.8726158,109.4914013,31.400001525878906,11.572892,2.089,207.73314
1776327171302,-5.3500504,13.548,12.55395,17.926134,0.55165,0.23127499,0.5962,-6.8726158,109.4914013,31.400001525878906,11.572892,2.089,207.73314
1776327171305,3.1009502,8.058001,-1.6690501,10.620361,0.1153625,-0.5605875,0.0023375,-6.8726158,109.4914013,31.400001525878906,11.572892,2.089,207.73314
1776327171305,9.295051,7.9789505,-20.805,21.43889,0.1153625,-0.5605875,0.0023375,-6.8726158,109.4914013,31.400001525878906,11.572892,2.089,207.73314
1776327171314,4.65105,10.72395,-3.903,14.146584,-0.56581247,0.38334998,0.194975,-6.8726158,109.4914013,31.400001525878906,11.572892,2.089,207.73314
1776327171319,-8.274,7.3879504,12.559051,16.234287,-0.31033748,0.5781875,0.111925,-6.8726158,109.4914013,31.400001525878906,11.572892,2.089,207.73314
1776327171324,-2.53095,10.707001,14.140051,17.579737,0.26427498,-0.0114124995,0.3067625,-6.8726158,109.4914013,31.400001525878906,11.572892,2.089,207.73314
1776327171333,5.8099504,6.4609504,-1.491,10.568777,0.26427498,-0.0114124995,0.3067625,-6.8726158,109.4914013,31.400001525878906,11.572892,2.089,207.73314
1776327171335,-1.2780001,8.568001,9.36705,12.320751,-0.1390125,-0.2646875,0.1258125,-6.8726158,109.4914013,31.400001525878906,11.572892,2.089,207.73314
1776327171339,-6.1260004,12.229951,15.936001,19.265211,0.0578875,-0.064625,0.0939125,-6.8726158,109.4914013,31.400001525878906,11.572892,2.089,207.73314
1776327171340,2.4160502,6.9330006,-1.70895,9.8835945,0.0578875,-0.064625,0.0939125,-6.8726158,109.4914013,31.400001525878906,11.572892,2.089,207.73314
1776327171343,2.53605,11.62695,-3.7600503,11.960883,0.0578875,-0.064625,0.0939125,-6.8726158,109.4914013,31.400001525878906,11.572892,2.089,207.73314
1776327171349,-7.7880006,11.851951,8.45895,15.6024885,-0.1879625,0.4632375,0.1662375,-6.8726158,109.4914013,31.400001525878906,11.572892,2.089,207.73314
1776327171355,-2.77305,11.48505,18.52695,20.699467,-0.4455,-0.2094125,0.392975,-6.8726158,109.4914013,31.400001525878906,11.572892,2.089,207.73314
1776327171363,8.370001,4.54005,3.2040002,12.17719,0.411125,-0.097625,0.5663625,-6.8726158,109.4914013,31.400001525878906,11.572892,2.089,207.73314
1776327171365,11.665951,3.4020002,-12.493951,16.378563,-0.00495,0.1535875,-0.1892,-6.8726158,109.4914013,31.400001525878906,11.572892,2.089,207.73314
1776327171371,1.6519501,16.82595,-1.1230501,16.830997,-0.00495,0.1535875,-0.1892,-6.8726158,109.4914013,31.400001525878906,11.572892,2.089,207.73314
1776327171375,-9.8230505,15.3490505,-2.56905,18.088932,0.29947498,0.5526125,0.147125,-6.8726158,109.4914013,31.400001525878906,11.572892,2.089,207.73314
1776327171380,2.979,5.2390504,-6.4110003,10.657015,-0.49445,-0.261525,0.3972375,-6.8726158,109.4914013,31.400001525878906,11.572892,2.089,207.73314
1776327171385,7.6930504,4.03695,7.1320505,11.123708,0.1728375,0.7973625,0.2162875,-6.8726158,109.4914013,31.400001525878906,11.572892,2.089,207.73314
1776327171390,-4.46805,4.6789503,13.431001,14.151125,0.1728375,0.7973625,0.2162875,-6.8726158,109.4914013,31.400001525878906,11.572892,2.089,207.73314
1776327171399,2.05995,12.477,5.3359504,13.810681,0.119625,-0.096525,0.0853875,-6.8726158,109.4914013,31.400001525878906,11.572892,2.089,207.73314
1776327171401,5.7240005,12.160951,-6.5860505,14.736215,0.119625,-0.096525,0.0853875,-6.8726158,109.4914013,31.400001525878906,11.572892,2.089,207.73314
1776327171405,-2.0680501,6.90105,0.21300001,8.713167,-0.3689125,0.180125,0.0939125,-6.8726158,109.4914013,31.400001525878906,11.572892,2.089,207.73314
1776327171410,-5.70195,6.8749504,15.697051,16.190878,-0.3689125,0.180125,0.0939125,-6.8726158,109.4914013,31.400001525878906,11.572892,2.089,207.73314
1776327171418,2.0359502,12.49905,-0.90900004,13.395266,0.5451875,-0.4147,0.2737625,-6.8726158,109.4914013,31.400001525878906,11.572892,2.089,207.73314
1776327171421,9.336,14.029051,-23.24295,25.646297,0.6708625,-0.0231,0.2673,-6.8726158,109.4914013,31.400001525878906,11.572892,2.089,207.73314
1776327171427,8.92905,12.823951,-11.448001,20.626116,-1.2414875,0.61325,-0.0966625,-6.8726158,109.4914013,31.400001525878906,11.572892,2.089,207.73314
1776327171430,-3.89595,5.1940503,20.590052,21.396828,-1.2414875,0.61325,-0.0966625,-6.8726158,109.4914013,31.400001525878906,11.572892,2.089,207.73314
1776327171440,-8.122951,2.9950502,32.14305,30.910215,-0.4742375,0.12265,0.0449625,-6.8726158,109.4914013,31.400001525878906,11.572892,2.089,207.73314
1776327171448,0.71400005,4.02705,9.738001,14.631634,0.6219125,-0.13915,0.163075,-6.8726158,109.4914013,31.400001525878906,11.572892,2.089,207.73314
1776327171452,2.5890002,12.682951,-6.2910004,14.440127,-0.0677875,0.4769875,-0.034925,-6.8726158,109.4914013,31.400001525878906,11.572892,2.089,207.73314
1776327171456,-9.318001,12.193951,0.52695,15.172526,-0.0677875,0.4769875,-0.034925,-6.8726158,109.4914013,31.400001525878906,11.572892,2.089,207.73314
1776327171461,-8.50905,11.62695,21.226952,23.558418,-0.69025,-0.1232,0.213125,-6.8726158,109.4914013,31.400001525878906,11.572892,2.089,207.73314
1776327171465,-1.5820501,2.7169502,10.561951,13.527651,0.26427498,-0.07095,0.44825,-6.8726158,109.4914013,31.400001525878906,11.572892,2.089,207.73314
1776327171470,10.32705,5.5939503,3.9970503,12.630582,0.149325,-0.3796375,0.45787498,-6.8726158,109.4914013,31.400001525878906,11.572892,2.089,207.73314
1776327171484,8.083051,13.76805,0.20295002,15.299492,0.6006,-0.04015,0.1343375,-6.8726158,109.4914013,31.400001525878906,11.572892,2.089,207.73314
1776327171485,8.232,13.308001,-12.424951,19.044853,0.6006,-0.04015,0.1343375,-6.8726158,109.4914013,31.400001525878906,11.572892,2.089,207.73314
1776327171487,8.89305,13.665001,-16.032001,22.101593,-0.03795,-0.112475,-0.165825,-6.8726158,109.4914013,31.400001525878906,11.572892,2.089,207.73314
1776327171487,-5.1600003,14.57505,-0.771,16.804882,-0.03795,-0.112475,-0.165825,-6.8726158,109.4914013,31.400001525878906,11.572892,2.089,207.73314
1776327171496,-14.70495,10.13895,14.932951,21.986155,-0.520025,0.3301375,0.0438625,-6.8726158,109.4914013,31.400001525878906,11.572892,2.089,207.73314
1776327171503,1.5970501,11.83005,15.627001,20.129059,-0.110275,-0.4712125,0.408925,-6.8726158,109.4914013,31.400001525878906,11.572892,2.089,207.73314
1776327171506,11.604,4.56405,-11.377951,17.529972,0.6197125,-0.1007875,0.4098875,-6.8726158,109.4914013,31.400001525878906,11.572892,2.089,207.73314
1776327171519,14.926051,8.278951,-8.908951,18.908798,-0.23265,-0.23815,0.0182875,-6.8726158,109.4914013,31.400001525878906,11.572892,2.089,207.73314
1776327171522,-0.26295,11.1,8.169001,14.80934,-0.3465,0.43559998,-0.3158375,-6.8726158,109.4914013,31.400001525878906,11.572892,2.089,207.73314
1776327171522,-18.65595,8.65905,16.879951,24.24783,-0.3465,0.43559998,-0.3158375,-6.8726158,109.4914013,31.400001525878906,11.572892,2.089,207.73314
1776327171526,-10.38405,10.09395,17.980951,23.319536,-0.1507,-0.40301248,0.1098625,-6.8726158,109.4914013,31.400001525878906,11.572892,2.089,207.73314
1776327171531,-2.0059502,8.137051,8.112,13.994802,0.443025,0.2099625,0.4844125,-6.8726158,109.4914013,31.400001525878906,11.572892,2.089,207.73314
1776327171541,3.3030002,10.44795,0.78795004,11.587694,0.2409,-0.4211625,0.392975,-6.8726158,109.4914013,31.400001525878906,11.572892,2.089,207.73314
1776327171542,15.5460005,5.64195,-2.16405,15.6608305,0.0451,-0.17105,0.48014998,-6.8726158,109.4914013,31.400001525878906,11.572892,2.089,207.73314
1776327171552,6.83295,3.8809502,-2.3490002,9.69357,0.09295,0.2376,-0.132825,-6.8726158,109.4914013,31.400001525878906,11.572892,2.089,207.73314
1776327171554,-9.58905,13.749001,9.618,17.399443,0.4239125,-0.081675,0.225775,-6.8726158,109.4914013,31.400001525878906,11.572892,2.089,207.73314
1776327171559,-7.4550004,15.439951,0.53400004,17.202961,0.4239125,-0.081675,0.225775,-6.8726158,109.4914013,31.400001525878906,11.572892,2.089,207.73314
1776327171561,7.4440503,9.9529505,-14.757001,18.875498,-0.2391125,-0.015675,0.225775,-6.8726158,109.4914013,31.400001525878906,11.572892,2.089,207.73314
1776327171566,11.436001,1.9609501,-15.262951,19.113108,-0.419925,0.392975,-0.0562375,-6.8726158,109.4914013,31.400001525878906,11.572892,2.089,207.73314
1776327171571,4.6200004,3.28005,-0.042000003,8.355516,-0.127325,0.164175,-0.2019875,-6.8726158,109.4914013,31.400001525878906,11.572892,2.089,207.73314
1776327171587,-5.6010003,14.059951,9.68295,16.044699,-0.0826375,-0.0273625,-0.1445125,-6.8726158,109.4914013,31.400001525878906,11.572892,2.089,207.73314
1776327171588,-6.597,12.72105,2.7160501,14.8769455,-0.0826375,-0.0273625,-0.1445125,-6.8726158,109.4914013,31.400001525878906,11.572892,2.089,207.73314
1776327171602,6.3970504,5.74695,4.131,10.607526,-0.0826375,-0.0273625,-0.1445125,-6.8726158,109.4914013,31.400001525878906,11.572892,2.089,207.73314
1776327171603,3.48495,5.1049504,11.553,12.603558,-0.0826375,-0.0273625,-0.1445125,-6.8726158,109.4914013,31.400001525878906,11.572892,2.089,207.73314
1776327171603,-7.7449503,10.663951,14.203951,18.022068,-0.0826375,-0.0273625,-0.1445125,-6.8726158,109.4914013,31.400001525878906,11.572892,2.089,207.73314
1776327171603,-2.526,12.798,8.622001,16.113825,0.26427498,-0.00715,0.2003375,-6.8726158,109.4914013,31.400001525878906,11.572892,2.089,207.73314
1776327171604,-0.46905002,9.625051,-2.1090002,11.11441,0.26427498,-0.00715,0.2003375,-6.8726158,109.4914013,31.400001525878906,11.572892,2.089,207.73314
1776327171618,-2.05905,14.581951,-0.43005002,14.009191,-0.028324999,-0.0114124995,0.1651375,-6.8726158,109.4914013,31.400001525878906,11.572892,2.089,207.73314
1776327171619,6.0259504,15.83205,2.3850002,16.487549,-0.028324999,-0.0114124995,0.1651375,-6.8726158,109.4914013,31.400001525878906,11.572892,2.089,207.73314
1776327171627,6.1770005,3.5770502,-7.8550506,11.788539,-0.504075,-0.0699875,0.0353375,-6.8726158,109.4914013,31.400001525878906,11.572892,2.089,207.73314
1776327171628,11.307,4.8679504,2.9290502,12.480933,-0.504075,-0.0699875,0.0353375,-6.8726158,109.4914013,31.400001525878906,11.572892,2.089,207.73314
1776327171633,-6.1710005,10.10805,3.5389502,12.384462,0.348425,0.9037875,-0.30415,-6.8726158,109.4914013,31.400001525878906,11.572892,2.089,207.73314
1776327171633,-13.21695,16.543951,4.2460504,19.754282,0.348425,0.9037875,-0.30415,-6.8726158,109.4914013,31.400001525878906,11.572892,2.089,207.73314
1776327171637,1.75995,9.93795,4.8109503,12.895326,-0.276375,-0.0444125,0.22055,-6.8726158,109.4914013,31.400001525878906,11.572892,2.089,207.73314
1776327171641,3.82695,-0.59595,3.4360502,6.721114,-0.276375,-0.0444125,0.22055,-6.8726158,109.4914013,31.400001525878906,11.572892,2.089,207.73314
1776327171654,6.36105,5.2870502,9.040951,11.147232,-0.1986875,0.098175,0.3535125,-6.8726158,109.4914013,31.400001525878906,11.572892,2.089,207.73314
1776327171655,1.4989501,12.613951,3.97305,12.877075,-0.1986875,0.098175,0.3535125,-6.8726158,109.4914013,31.400001525878906,11.572892,2.089,207.73314
1776327171655,-7.7040005,13.894951,3.18,15.537729,-0.1986875,0.098175,0.3535125,-6.8726158,109.4914013,31.400001525878906,11.572892,2.089,207.73314
1776327171658,0.76605004,10.330951,12.142051,15.876126,-0.1986875,0.098175,0.3535125,-6.8726158,109.4914013,31.400001525878906,11.572892,2.089,207.73314
1776327171662,-0.58095,11.349001,5.38605,13.235742,0.263175,-0.00605,0.0661375,-6.8726158,109.4914013,31.400001525878906,11.572892,2.089,207.73314
1776327171667,3.5400002,15.043951,-1.79595,15.09422,0.198275,-0.1167375,0.2322375,-6.8726158,109.4914013,31.400001525878906,11.572892,2.089,207.73314
1776327171672,9.990001,10.84395,-1.72395,14.894558,0.02805,0.20253749,0.25355,-6.8726158,109.4914013,31.400001525878906,11.572892,2.089,207.73314
1776327171683,-1.08405,9.687,0.99600005,10.81749,-0.0826375,0.263175,0.0407,-6.8726158,109.4914013,31.400001525878906,11.572892,2.089,207.73314
1776327171690,-3.2299502,11.955001,8.467951,14.165119,0.23127499,-0.066825,0.143825,-6.8726158,109.4914013,31.400001525878906,11.572892,2.089,207.73314
1776327171693,0.21795002,11.569051,1.9780501,12.22419,-0.1571625,0.0301125,0.062975,-6.8726158,109.4914013,31.400001525878906,11.572892,2.089,207.73314
1776327171698,1.50195,7.4740505,0.08295,8.543975,-0.56155,0.017324999,0.0438625,-6.8726158,109.4914013,31.400001525878906,11.572892,2.089,207.73314
1776327171704,0.79695004,2.2360501,11.4210005,11.040867,0.0259875,0.2077625,-0.0317625,-6.8726158,109.4914013,31.400001525878906,11.572892,2.089,207.73314
1776327171707,-5.256,3.2269502,21.282001,19.93431,0.0259875,0.2077625,-0.0317625,-6.8726158,109.4914013,31.400001525878906,11.572892,2.089,207.73314
1776327171722,-5.06505,9.724951,9.117001,15.394904,0.5069625,-0.259325,0.0906125,-6.8726158,109.4914013,31.400001525878906,11.572892,2.089,207.73314
1776327171724,-0.13800001,9.826051,-7.8769503,13.15443,0.084425,-0.164725,0.15235,-6.8726158,109.4914013,31.400001525878906,11.572892,2.089,207.73314
1776327171724,1.59,9.859051,2.6560502,10.897778,0.084425,-0.164725,0.15235,-6.8726158,109.4914013,31.400001525878906,11.572892,2.089,207.73314
1776327171728,-3.9100502,7.7710505,6.33195,10.787323,0.167475,0.1769625,0.2003375,-6.8726158,109.4914013,31.400001525878906,11.572892,2.089,207.73314
1776327171736,8.004001,12.312,-1.9009501,14.003491,0.3037375,-0.49568748,0.2992,-6.8726158,109.4914013,31.400001525878906,11.572892,2.089,207.73314
1776327171738,10.96905,10.804951,-14.271001,19.595528,-0.226325,0.2897125,0.02475,-6.8726158,109.4914013,31.400001525878906,11.572892,2.089,207.73314
1776327171738,5.1709504,10.50405,-5.8219504,14.379512,-0.226325,0.2897125,0.02475,-6.8726158,109.4914013,31.400001525878906,11.572892,2.089,207.73314
1776327171743,-3.9840002,14.050951,9.10995,16.646425,-0.2795375,0.3014,-0.1775125,-6.8726158,109.4914013,31.400001525878906,11.572892,2.089,207.73314
1776327171752,-2.7970502,13.311001,-0.00405,14.210646,0.1706375,0.033275,0.1694,-6.8726158,109.4914013,31.400001525878906,11.572892,2.089,207.73314
1776327171758,6.0859504,6.46605,-13.918951,16.050266,-0.56265,-0.047575,-0.00825,-6.8726158,109.4914013,31.400001525878906,11.572892,2.089,207.73314
1776327171765,5.5849504,9.91005,-1.45095,12.38414,-0.56265,-0.047575,-0.00825,-6.8726158,109.4914013,31.400001525878906,11.572892,2.089,207.73314
1776327171766,-10.104,8.36205,10.662001,15.998793,-0.2635875,0.522775,-0.1359875,-6.8726158,109.4914013,31.400001525878906,11.572892,2.089,207.73314
1776327171771,-4.87095,7.6410003,20.227951,20.931648,-0.5721375,-0.033825,0.176825,-6.8726158,109.4914013,31.400001525878906,11.572892,2.089,207.73314
1776327171779,0.38505003,2.6479502,10.915951,13.1776285,0.12485,0.099275,0.2481875,-6.8726158,109.4914013,31.400001525878906,11.572892,2.089,207.73314
1776327171783,0.61095005,0.88305,6.6070504,7.9905176,0.12485,0.099275,0.2481875,-6.8726158,109.4914013,31.400001525878906,11.572892,2.089,207.73314
1776327171788,2.8210502,9.24405,2.7250502,9.631501,0.460075,-0.115775,0.0842875,-6.8726158,109.4914013,31.400001525878906,11.572892,2.089,207.73314
1776327171799,-1.08405,15.175951,-9.73305,16.37548,0.61654997,0.1662375,0.02255,-6.8726158,109.4914013,31.400001525878906,11.572892,2.089,207.73314
1776327171799,-1.0189501,12.10305,-13.146001,17.59352,-0.094325,-0.013612499,0.15345,-6.8726158,109.4914013,31.400001525878906,11.572892,2.089,207.73314
1776327171804,5.511,9.74205,5.8669505,13.628494,-0.1252625,0.2014375,0.15345,-6.8726158,109.4914013,31.400001525878906,11.572892,2.089,207.73314
1776327171811,-0.648,5.2489505,6.5020504,9.430828,-0.1252625,0.2014375,0.15345,-6.8726158,109.4914013,31.400001525878906,11.572892,2.089,207.73314
1776327171820,11.805,9.61005,-0.081,14.063986,0.100375,-0.3221625,0.2897125,-6.8726158,109.4914013,31.400001525878906,11.572892,2.089,207.73314
1776327171834,8.373,7.6750503,-9.2029505,14.507796,-0.1379125,0.3014,0.02145,-6.8726158,109.4914013,31.400001525878906,11.572892,2.089,207.73314
1776327171835,-6.66405,13.91205,1.8510001,15.330709,-0.1379125,0.3014,0.02145,-6.8726158,109.4914013,31.400001525878906,11.572892,2.089,207.73314
1776327171836,-10.903951,14.874001,8.866051,19.43663,-0.2954875,-0.2806375,0.2055625,-6.8726158,109.4914013,31.400001525878906,11.572892,2.089,207.73314
1776327171837,-4.1620502,12.693001,4.3560004,15.12753,-0.3498,-0.3221625,0.3067625,-6.8726158,109.4914013,31.400001525878906,11.572892,2.089,207.73314
1776327171841,7.1320505,5.24205,1.5439501,10.213452,-0.3498,-0.3221625,0.3067625,-6.8726158,109.4914013,31.400001525878906,11.572892,2.089,207.73314
1776327171846,12.175951,1.3879501,6.2790003,13.058491,-0.1549625,0.2270125,-0.091299996,-6.8726158,109.4914013,31.400001525878906,11.572892,2.089,207.73314
1776327171847,-0.96900004,10.453051,8.03295,13.186643,-0.1549625,0.2270125,-0.091299996,-6.8726158,109.4914013,31.400001525878906,11.572892,2.089,207.73314
1776327171857,-4.75605,18.83595,10.236,20.204367,0.1302125,0.3727625,0.05775,-6.8726158,109.4914013,31.400001525878906,11.572892,2.089,207.73314
1776327171866,-7.3780503,10.2619505,4.7850003,14.852407,-0.4901875,-0.3040125,0.113025,-6.8726158,109.4914013,31.400001525878906,11.572892,2.089,207.73314
1776327171866,-0.61005,8.082001,12.02295,14.570268,0.1291125,-0.0955625,0.144925,-6.8726158,109.4914013,31.400001525878906,11.572892,2.089,207.73314
1776327171867,-0.23895001,7.7970004,9.69705,12.870217,0.1291125,-0.0955625,0.144925,-6.8726158,109.4914013,31.400001525878906,11.572892,2.089,207.73314
1776327171871,-1.0170001,14.965051,7.14195,15.864509,0.019524999,0.0204875,0.2726625,-6.8726158,109.4914013,31.400001525878906,11.572892,2.089,207.73314
1776327171872,5.4820504,8.53005,-4.143,11.935699,0.019524999,0.0204875,0.2726625,-6.8726158,109.4914013,31.400001525878906,11.572892,2.089,207.73314
1776327171877,5.7840004,8.05305,2.2440002,10.519714,-0.1742125,0.2344375,-0.1551,-6.8726158,109.4914013,31.400001525878906,11.572892,2.089,207.73314
1776327171882,-6.492,14.608951,8.883,16.734873,-0.1742125,0.2344375,-0.1551,-6.8726158,109.4914013,31.400001525878906,11.572892,2.089,207.73314
1776327171888,2.90505,9.580951,-4.2840004,12.058773,0.108899996,-0.21367499,0.2385625,-6.8726158,109.4914013,31.400001525878906,11.572892,2.089,207.73314
1776327171892,8.60505,9.868951,-5.1340504,13.663111,0.108899996,-0.21367499,0.2385625,-6.8726158,109.4914013,31.400001525878906,11.572892,2.089,207.73314
1776327171903,-6.7819505,9.0709505,9.129001,14.3702345,-0.3337125,-0.0688875,-0.197725,-6.8726158,109.4914013,31.400001525878906,11.572892,2.089,207.73314
1776327171907,-7.2300005,6.08505,17.41395,18.724274,-0.226325,0.6611,0.1076625,-6.8726158,109.4914013,31.400001525878906,11.572892,2.089,207.73314
1776327171916,2.5510502,10.80105,10.82295,16.14632,-0.0837375,-0.43395,0.146025,-6.8726158,109.4914013,31.400001525878906,11.572892,2.089,207.73314
1776327171917,-0.70995003,6.6400504,-8.96895,12.174837,0.5974375,-0.031625,0.127875,-6.8726158,109.4914013,31.400001525878906,11.572892,2.089,207.73314
1776327171922,2.6580002,8.319,7.2349505,11.50766,0.0386375,-0.0614625,0.2055625,-6.8726158,109.4914013,31.400001525878906,11.572892,2.089,207.73314
1776327171927,-5.4019504,10.654051,13.531051,16.741016,0.3931125,0.0950125,0.2024,-6.8726158,109.4914013,31.400001525878906,11.572892,2.089,207.73314
1776327171931,-2.83995,9.574051,-4.27395,12.038222,0.491975,-0.38073748,0.2960375,-6.8726158,109.4914013,31.400001525878906,11.572892,2.089,207.73314
1776327171932,11.460001,9.991051,-8.740951,16.437487,0.491975,-0.38073748,0.2960375,-6.8726158,109.4914013,31.400001525878906,11.572892,2.089,207.73314
1776327171937,0.46005002,6.6480002,4.584,9.758138,-0.094325,0.539825,-0.015675,-6.8726158,109.4914013,31.400001525878906,11.572892,2.089,207.73314
1776327171942,-5.3089504,6.1540504,11.841001,13.441215,0.0823625,-0.2316875,0.3205125,-6.8726158,109.4914013,31.400001525878906,11.572892,2.089,207.73314
1776327171951,7.4989505,10.329,1.8769501,13.009342,0.0823625,-0.2316875,0.3205125,-6.8726158,109.4914013,31.400001525878906,11.572892,2.089,207.73314
1776327171954,0.22305001,10.482,-20.19705,20.806799,-0.011275,-0.2222,0.0842875,-6.8726158,109.4914013,31.400001525878906,11.572892,2.089,207.73314
1776327171958,3.31905,11.481001,-5.40495,14.6545725,-0.4582875,0.440825,0.1694,-6.8726158,109.4914013,31.400001525878906,11.572892,2.089,207.73314
1776327171962,-2.4780002,7.1239505,9.988951,12.944355,-0.469975,-0.098725,0.029975,-6.8726158,109.4914013,31.400001525878906,11.572892,2.089,207.73314
1776327171967,-4.74795,6.5520005,10.03995,12.904601,-0.469975,-0.098725,0.029975,-6.8726158,109.4914013,31.400001525878906,11.572892,2.089,207.73314
1776327171972,8.1,3.9870002,-2.45895,10.066484,0.1940125,-0.0752125,0.2726625,-6.8726158,109.4914013,31.400001525878906,11.572892,2.089,207.73314
1776327171989,2.8909502,7.5529504,-0.43500003,8.4925,0.0174625,-0.163625,0.2396625,-6.8726158,109.4914013,31.400001525878906,11.572892,2.089,207.73314
1776327171989,-8.868,12.793051,5.68305,14.955363,0.0174625,-0.163625,0.2396625,-6.8726158,109.4914013,31.400001525878906,11.572892,2.089,207.73314
1776327171991,1.3270501,10.06005,1.5970501,11.208761,-0.0922625,-0.1348875,0.2470875,-6.8726158,109.4914013,31.400001525878906,11.572892,2.089,207.73314
1776327171998,2.8189502,7.79505,-4.392,9.746373,-0.1007875,0.472725,0.225775,-6.8726158,109.4914013,31.400001525878906,11.572892,2.089,207.73314
1776327171998,-0.71805006,11.65305,6.14295,12.503365,-0.1007875,0.472725,0.225775,-6.8726158,109.4914013,31.400001525878906,11.572892,2.089,207.73314
1776327172003,-3.5700002,9.76095,8.68395,13.335641,-0.3114375,-0.294525,0.1918125,-6.8726158,109.4914013,31.400001525878906,11.572892,2.089,207.73314
1776327172008,0.8880001,11.398951,11.908051,15.873826,0.1780625,0.05775,0.258775,-6.8726158,109.4914013,31.400001525878906,11.572892,2.089,207.73314
1776327172028,2.63205,6.0150003,-2.84505,8.899224,0.1780625,0.05775,0.258775,-6.8726158,109.4914013,31.400001525878906,11.572892,2.089,207.73314
1776327172028,5.43195,10.333051,-4.32,11.73785,0.19085,0.1428625,-0.0275,-6.8726158,109.4914013,31.400001525878906,11.572892,2.089,207.73314
1776327172032,-3.9490502,17.14005,-2.943,16.614456,-0.1412125,-0.0572,0.41525,-6.8726158,109.4914013,31.400001525878906,11.572892,2.089,207.73314
1776327172032,-1.5150001,13.057051,-3.0700502,14.121617,-0.1412125,-0.0572,0.41525,-6.8726158,109.4914013,31.400001525878906,11.572892,2.089,207.73314
1776327172035,8.896951,3.96495,-4.68195,11.470144,-0.501875,-0.23595,0.1843875,-6.8726158,109.4914013,31.400001525878906,11.572892,2.089,207.73314
1776327172037,2.5819502,5.01195,2.196,7.134427,-0.501875,-0.23595,0.1843875,-6.8726158,109.4914013,31.400001525878906,11.572892,2.089,207.73314
1776327172043,-8.3890505,10.606951,15.282001,17.752043,-0.325325,0.4398625,-0.1051875,-6.8726158,109.4914013,31.400001525878906,11.572892,2.089,207.73314
1776327172056,-4.116,12.496051,12.604951,18.12661,-0.20075,-0.4530625,0.3056625,-6.8726158,109.4914013,31.400001525878906,11.572892,2.089,207.73314
1776327172057,3.1900501,6.6520505,-8.79105,12.806478,-0.20075,-0.4530625,0.3056625,-6.8726158,109.4914013,31.400001525878906,11.572892,2.089,207.73314
1776327172059,8.6650505,9.20505,1.2040501,12.720533,-0.20075,-0.4530625,0.3056625,-6.8726158,109.4914013,31.400001525878906,11.572892,2.089,207.73314
1776327172063,-3.0960002,9.114,5.5150504,11.418916,-0.077275,0.230175,0.1172875,-6.8726158,109.4914013,31.400001525878906,11.572892,2.089,207.73314
1776327172067,-3.726,11.845051,3.729,12.65586,-0.1252625,-0.2583625,0.064075,-6.8726158,109.4914013,31.400001525878906,11.572892,2.089,207.73314
1776327172074,-0.39705002,13.66695,2.38695,13.634777,-0.1252625,-0.2583625,0.064075,-6.8726158,109.4914013,31.400001525878906,11.572892,2.089,207.73314
1776327172087,-2.3820002,8.83695,7.4070005,12.146231,-0.24653749,0.3227125,0.4334,-6.8726158,109.4914013,31.400001525878906,11.572892,2.089,207.73314
1776327172087,5.99205,8.022,5.7379503,11.661579,-0.24653749,0.3227125,0.4334,-6.8726158,109.4914013,31.400001525878906,11.572892,2.089,207.73314
1776327172090,10.452001,9.33195,-2.60295,13.733507,-0.1890625,-0.277475,0.373725,-6.8726158,109.4914013,31.400001525878906,11.572892,2.089,207.73314
1776327172096,-2.97405,9.450001,1.659,10.782612,0.1887875,0.3482875,-0.01155,-6.8726158,109.4914013,31.400001525878906,11.572892,2.089,207.73314
1776327172101,-14.87205,11.51895,23.373001,26.158672,-0.5498625,0.476025,-0.04015,-6.8726158,109.4914013,31.400001525878906,11.572892,2.089,207.73314
1776327172108,-13.126051,10.288051,23.90895,28.552458,0.379225,-0.2849,0.701525,-6.8726158,109.4914013,31.400001525878906,11.572892,2.089,207.73314
1776327172121,4.4500504,2.322,-3.6450002,10.673115,0.379225,-0.2849,0.701525,-6.8726158,109.4914013,31.400001525878906,11.572892,2.089,207.73314
1776327172121,20.26905,5.3640003,-17.602951,24.035795,0.296175,-0.2509375,0.2173875,-6.8726158,109.4914013,31.400001525878906,11.572892,2.089,207.73314
1776327172126,9.927,9.658051,-22.56495,25.988287,0.296175,-0.2509375,0.2173875,-6.8726158,109.4914013,31.400001525878906,11.572892,2.089,207.73314
1776327172127,-1.27995,12.967951,-10.783951,18.729242,0.296175,-0.2509375,0.2173875,-6.8726158,109.4914013,31.400001525878906,11.572892,2.089,207.73314
1776327172132,-8.24505,6.66195,4.25295,12.883027,-0.5561875,0.6015625,0.0290125,-6.8726158,109.4914013,31.400001525878906,11.572892,2.089,207.73314
1776327172140,-5.247,3.9409502,13.900051,14.87356,-1.04995,-0.1604625,0.1428625,-6.8726158,109.4914013,31.400001525878906,11.572892,2.089,207.73314
1776327172141,6.2100005,7.7539506,16.33395,18.268858,-0.2635875,0.013062499,0.408925,-6.8726158,109.4914013,31.400001525878906,11.572892,2.089,207.73314
1776327172154,-0.86895007,7.85895,15.333001,17.455084,-0.0528,0.260975,0.0991375,-6.8726158,109.4914013,31.400001525878906,11.572892,2.089,207.73314
1776327172154,-2.7439501,7.45695,27.247952,26.197298,-0.0528,0.260975,0.0991375,-6.8726158,109.4914013,31.400001525878906,11.572892,2.089,207.73314
1776327172164,-5.019,3.8569503,13.387951,17.086584,1.1188375,-0.0199375,0.131175,-6.8726158,109.4914013,31.400001525878906,11.572892,2.089,207.73314
1776327172165,-7.7779503,18.373951,-6.9979506,20.332539,1.1188375,-0.0199375,0.131175,-6.8726158,109.4914013,31.400001525878906,11.572892,2.089,207.73314
1776327172172,-0.97605,26.232,-22.462051,31.705484,-0.6105,0.0418,0.80905,-6.8726158,109.4914013,31.400001525878906,11.572892,2.089,207.73314
1776327172172,11.7640505,12.316951,-12.286051,23.141996,-0.6105,0.0418,0.80905,-6.8726158,109.4914013,31.400001525878906,11.572892,2.089,207.73314
1776327172192,14.788951,-0.63195,11.167951,19.462643,-1.18415,0.065175,0.4642,-6.8726158,109.4914013,31.400001525878906,11.572892,2.089,207.73314
1776327172192,6.09495,-2.7880502,16.441051,18.096298,0.64845,0.1992375,-0.1753125,-6.8726158,109.4914013,31.400001525878906,11.572892,2.089,207.73314
1776327172201,-1.8550501,10.42695,5.1270003,13.032396,0.69107497,0.2695,-0.015675,-6.8726158,109.4914013,31.400001525878906,11.572892,2.089,207.73314
1776327172202,-8.06295,19.047,-9.55095,20.83209,0.69107497,0.2695,-0.015675,-6.8726158,109.4914013,31.400001525878906,11.572892,2.089,207.73314
1776327172204,-9.574051,12.633,-12.046051,20.093502,-0.2198625,0.0215875,0.1343375,-6.8726158,109.4914013,31.400001525878906,11.572892,2.089,207.73314
1776327172206,-2.95005,9.0070505,13.033051,16.910625,-1.0872124,-0.1082125,0.407825,-6.8726158,109.4914013,31.400001525878906,11.572892,2.089,207.73314
1776327172222,-5.352,-1.023,24.514952,23.472692,-0.5732375,0.0790625,0.489775,-6.8726158,109.4914013,31.400001525878906,11.572892,2.089,207.73314
1776327172222,5.3700004,-1.0489501,21.430052,22.388548,1.0858375,0.4153875,0.095975,-6.8726158,109.4914013,31.400001525878906,11.572892,2.089,207.73314
1776327172222,9.525001,6.7240505,9.699,16.61055,1.0858375,0.4153875,0.095975,-6.8726158,109.4914013,31.400001525878906,11.572892,2.089,207.73314
1776327172230,-2.52795,17.547,-6.9259505,18.548542,-0.3848625,0.02475,0.3524125,-6.8726158,109.4914013,31.400001525878906,11.572892,2.089,207.73314
1776327172230,-0.93795,22.279951,-15.106951,25.257734,-0.3848625,0.02475,0.3524125,-6.8726158,109.4914013,31.400001525878906,11.572892,2.089,207.73314
1776327172232,1.4440501,18.297,-7.4890504,20.909948,-0.4455,-0.0028875,0.4673625,-6.8726158,109.4914013,31.400001525878906,11.572892,2.089,207.73314
1776327172238,0.54405004,7.3090506,-0.89805007,10.089258,-0.3507625,-0.112475,0.4994,-6.8726158,109.4914013,31.400001525878906,11.572892,2.089,207.73314
1776327172243,11.71905,5.6659503,7.55805,14.059466,0.152625,-0.048675,0.1258125,-6.8726158,109.4914013,31.400001525878906,11.572892,2.089,207.73314
1776327172255,6.01905,6.91305,-0.91695005,10.181454,0.2217875,0.394075,0.18645,-6.8726158,109.4914013,31.400001525878906,11.572892,2.089,207.73314
1776327172256,4.54605,6.9300003,-5.3910003,9.945955,0.2217875,0.394075,0.18645,-6.8726158,109.4914013,31.400001525878906,11.572892,2.089,207.73314
1776327172264,-3.4840503,8.002951,0.402,8.979353,-0.2508,0.276925,-0.1423125,-6.8726158,109.4914013,31.400001525878906,11.572892,2.089,207.73314
1776327172266,-20.517,7.7490005,12.769951,22.098633,-0.46254998,0.2589125,-0.15413749,-6.8726158,109.4914013,31.400001525878906,11.572892,2.089,207.73314
1776327172272,-15.4470005,1.11,22.000051,25.943209,-0.4189625,0.014162499,0.506825,-6.8726158,109.4914013,31.400001525878906,11.572892,2.089,207.73314
1776327172277,-3.6709502,-2.3110502,23.274,24.128479,-0.21779999,-0.4499,0.64625,-6.8726158,109.4914013,31.400001525878906,11.572892,2.089,207.73314
1776327172292,4.3369503,0.34605002,10.971001,14.26745,0.3845875,-0.2498375,0.05555,-6.8726158,109.4914013,31.400001525878906,11.572892,2.089,207.73314
1776327172293,12.391951,6.42495,-5.9340005,14.987483,0.3845875,-0.2498375,0.05555,-6.8726158,109.4914013,31.400001525878906,11.572892,2.089,207.73314
1776327172297,5.853,17.53095,-8.964001,19.430538,0.3845875,-0.2498375,0.05555,-6.8726158,109.4914013,31.400001525878906,11.572892,2.089,207.73314
1776327172303,-5.2110004,17.70795,-2.5570502,18.794136,0.0994125,0.5770875,0.2971375,-6.8726158,109.4914013,31.400001525878906,11.572892,2.089,207.73314
1776327172308,-0.78495,13.465951,-0.33495003,14.553202,-0.0400125,-0.00935,0.489775,-6.8726158,109.4914013,31.400001525878906,11.572892,2.089,207.73314
1776327172325,5.9710503,16.987051,-4.1119504,17.68622,-0.5966125,0.1439625,0.033275,-6.8726158,109.4914013,31.400001525878906,11.572892,2.089,207.73314
1776327172325,10.549951,19.12605,-12.042001,23.491064,-0.5966125,0.1439625,0.033275,-6.8726158,109.4914013,31.400001525878906,11.572892,2.089,207.73314
1776327172325,17.632051,13.04895,-17.598001,27.195915,-0.5966125,0.1439625,0.033275,-6.8726158,109.4914013,31.400001525878906,11.572892,2.089,207.73314
1776327172326,16.461,13.246051,-9.517051,23.977734,-0.5966125,0.1439625,0.033275,-6.8726158,109.4914013,31.400001525878906,11.572892,2.089,207.73314
1776327172335,-5.4310503,12.309001,-0.95505005,15.585764,-0.8595125,0.538725,-0.1434125,-6.8726158,109.4914013,31.400001525878906,11.572892,2.089,207.73314
1776327172338,-19.428001,10.5709505,17.629051,25.744226,-0.8595125,0.538725,-0.1434125,-6.8726158,109.4914013,31.400001525878906,11.572892,2.089,207.73314
1776327172342,-14.518051,7.6270504,24.619951,28.814352,0.3004375,-0.162525,0.6813125,-6.8726158,109.4914013,31.400001525878906,11.572892,2.089,207.73314
1776327172343,-2.7870002,0.25500003,5.0599504,10.388745,0.3004375,-0.162525,0.6813125,-6.8726158,109.4914013,31.400001525878906,11.572892,2.089,207.73314
1776327172355,8.245951,3.3640501,4.47795,10.052292,-0.3870625,0.147125,0.13213749,-6.8726158,109.4914013,31.400001525878906,11.572892,2.089,207.73314
1776327172359,-2.76495,7.1410503,16.41,16.497477,-0.3870625,0.147125,0.13213749,-6.8726158,109.4914013,31.400001525878906,11.572892,2.089,207.73314
1776327172363,-10.915951,6.0199504,27.85395,27.71248,0.4239125,-0.0199375,0.5099875,-6.8726158,109.4914013,31.400001525878906,11.572892,2.089,207.73314
1776327172368,-6.5950503,5.4690003,19.098001,22.2879,0.4239125,-0.0199375,0.5099875,-6.8726158,109.4914013,31.400001525878906,11.572892,2.089,207.73314
1776327172376,-0.81105006,13.744051,2.421,15.64094,0.8677625,-0.1838375,0.57915,-6.8726158,109.4914013,31.400001525878906,11.572892,2.089,207.73314
1776327172384,5.322,15.018001,-15.64395,20.99162,0.8347625,-0.1529,0.7717875,-6.8726158,109.4914013,31.400001525878906,11.572892,2.089,207.73314
1776327172385,18.445951,12.931951,-19.66995,28.12348,-0.3348125,0.62067497,0.111925,-6.8726158,109.4914013,31.400001525878906,11.572892,2.089,207.73314
1776327172385,15.45705,14.170051,-17.703001,27.578934,-0.3348125,0.62067497,0.111925,-6.8726158,109.4914013,31.400001525878906,11.572892,2.089,207.73314
1776327172390,3.1590002,14.757001,-8.34405,19.311357,-0.3348125,0.62067497,0.111925,-6.8726158,109.4914013,31.400001525878906,11.572892,2.089,207.73314
1776327172393,-3.3949502,8.63805,3.5800502,11.820497,-0.6774625,0.3460875,0.0842875,-6.8726158,109.4914013,31.400001525878906,11.572892,2.089,207.73314
1776327172404,-4.66695,8.748,14.215951,16.229767,0.3047,0.3036,0.3524125,-6.8726158,109.4914013,31.400001525878906,11.572892,2.089,207.73314
1776327172404,-5.77605,4.9570503,-1.197,9.41,0.3047,0.3036,0.3524125,-6.8726158,109.4914013,31.400001525878906,11.572892,2.089,207.73314
1776327172409,5.8840504,11.43795,-3.3450003,12.514412,-0.1071125,-0.1656875,0.41415,-6.8726158,109.4914013,31.400001525878906,11.572892,2.089,207.73314
1776327172420,-2.11905,10.563001,-1.3879501,11.192877,-0.3125375,0.3152875,0.1821875,-6.8726158,109.4914013,31.400001525878906,11.572892,2.089,207.73314
1776327172426,-4.9759502,4.4230504,21.145052,19.973272,-1.091475,0.2110625,0.41635,-6.8726158,109.4914013,31.400001525878906,11.572892,2.089,207.73314
1776327172427,-5.9560504,-0.52500004,37.956,34.733902,0.57928747,0.165275,0.5302,-6.8726158,109.4914013,31.400001525878906,11.572892,2.089,207.73314
1776327172432,-4.95195,1.9530001,21.421051,24.604822,0.4591125,0.3696,0.5196125,-6.8726158,109.4914013,31.400001525878906,11.572892,2.089,207.73314
1776327172432,2.766,11.899951,0.9670501,14.725283,0.4591125,0.3696,0.5196125,-6.8726158,109.4914013,31.400001525878906,11.572892,2.089,207.73314
1776327172433,1.8780001,20.484001,-5.71605,20.02453,0.4591125,0.3696,0.5196125,-6.8726158,109.4914013,31.400001525878906,11.572892,2.089,207.73314
1776327172436,1.54005,13.569,-15.106951,20.296438,0.4591125,0.3696,0.5196125,-6.8726158,109.4914013,31.400001525878906,11.572892,2.089,207.73314
1776327172442,12.48795,11.409,-5.77605,18.358423,-0.093225,-0.1252625,0.6175125,-6.8726158,109.4914013,31.400001525878906,11.572892,2.089,207.73314
1776327172452,5.38605,11.281951,-4.605,14.329954,0.0759,0.4217125,0.3609375,-6.8726158,109.4914013,31.400001525878906,11.572892,2.089,207.73314
1776327172456,6.5929503,7.29405,-7.1200504,12.577518,-0.1645875,0.0301125,0.3025,-6.8726158,109.4914013,31.400001525878906,11.572892,2.089,207.73314
1776327172457,11.37405,8.53005,-6.4870505,15.017345,-0.2369125,0.5110875,-0.01155,-6.8726158,109.4914013,31.400001525878906,11.572892,2.089,207.73314
1776327172461,-4.617,11.36295,-1.8270001,12.923833,-0.2369125,0.5110875,-0.01155,-6.8726158,109.4914013,31.400001525878906,11.572892,2.089,207.73314
1776327172467,-8.51295,11.15505,3.4440002,14.143773,-0.5913875,0.1662375,0.3205125,-6.8726158,109.4914013,31.400001525878906,11.572892,2.089,207.73314
1776327172472,0.0139500005,7.2460504,13.227,14.894149,-0.5913875,0.1662375,0.3205125,-6.8726158,109.4914013,31.400001525878906,11.572892,2.089,207.73314
1776327172482,-7.4670005,5.8620005,21.70605,21.93177,-0.6285125,0.056649998,0.1907125,-6.8726158,109.4914013,31.400001525878906,11.572892,2.089,207.73314
1776327172484,-3.834,3.00195,24.442951,24.324966,-0.2231625,0.3493875,0.3524125,-6.8726158,109.4914013,31.400001525878906,11.572892,2.089,207.73314
1776327172493,4.63905,4.0230002,15.661051,18.322454,0.526075,0.0768625,0.262075,-6.8726158,109.4914013,31.400001525878906,11.572892,2.089,207.73314
1776327172503,-2.2720501,12.642,1.3260001,13.99474,-0.403975,-0.087037496,0.3557125,-6.8726158,109.4914013,31.400001525878906,11.572892,2.089,207.73314
1776327172503,-0.51600003,17.08695,-13.725,20.337126,-0.403975,-0.087037496,0.3557125,-6.8726158,109.4914013,31.400001525878906,11.572892,2.089,207.73314
1776327172503,4.8,19.56405,-8.37705,21.520761,-0.403975,-0.087037496,0.3557125,-6.8726158,109.4914013,31.400001525878906,11.572892,2.089,207.73314
1776327172507,1.72395,14.2879505,2.14995,15.945178,-0.2231625,0.4610375,0.718575,-6.8726158,109.4914013,31.400001525878906,11.572892,2.089,207.73314
1776327172513,14.410951,3.9870002,3.90405,15.551903,-0.226325,-0.032725,0.4035625,-6.8726158,109.4914013,31.400001525878906,11.572892,2.089,207.73314
1776327172520,15.1390505,4.899,1.79295,15.920521,-0.226325,-0.032725,0.4035625,-6.8726158,109.4914013,31.400001525878906,11.572892,2.089,207.73314
1776327172526,-3.3949502,9.868951,0.93405,11.566728,0.248325,0.8611625,-0.036025,-6.8726158,109.4914013,31.400001525878906,11.572892,2.089,207.73314
1776327172527,-10.05795,13.94295,7.9009504,17.449913,0.248325,0.8611625,-0.036025,-6.8726158,109.4914013,31.400001525878906,11.572892,2.089,207.73314
1776327172541,-10.012951,16.386002,2.53605,18.985878,-0.49335,-0.1359875,0.667425,-6.8726158,109.4914013,31.400001525878906,11.572892,2.089,207.73314
1776327172542,0.20805001,6.7530003,-4.63605,10.35226,-0.49335,-0.1359875,0.667425,-6.8726158,109.4914013,31.400001525878906,11.572892,2.089,207.73314
1776327172542,10.651051,1.491,11.922001,14.915424,-0.49335,-0.1359875,0.667425,-6.8726158,109.4914013,31.400001525878906,11.572892,2.089,207.73314
1776327172547,2.73495,0.39900002,14.338951,14.665404,0.2728,0.2578125,0.160875,-6.8726158,109.4914013,31.400001525878906,11.572892,2.089,207.73314
1776327172554,3.20895,7.452,7.5390005,11.793463,0.6271375,0.18975,0.045925,-6.8726158,109.4914013,31.400001525878906,11.572892,2.089,207.73314
1776327172557,-1.28805,13.179001,-5.30205,13.769758,0.6271375,0.18975,0.045925,-6.8726158,109.4914013,31.400001525878906,11.572892,2.089,207.73314
1776327172570,-4.143,14.2879505,-7.2370505,15.988692,0.2844875,0.4365625,0.25245,-6.8726158,109.4914013,31.400001525878906,11.572892,2.089,207.73314
1776327172572,0.57195,13.1980505,-8.82495,15.907305,-0.1645875,-0.0677875,0.4684625,-6.8726158,109.4914013,31.400001525878906,11.572892,2.089,207.73314
1776327172576,9.07695,7.5220504,-7.7830505,14.482382,-0.1645875,-0.0677875,0.4684625,-6.8726158,109.4914013,31.400001525878906,11.572892,2.089,207.73314
1776327172584,8.611951,4.18095,-4.9360504,11.513136,-0.49981248,0.0768625,0.1651375,-6.8726158,109.4914013,31.400001525878906,11.572892,2.089,207.73314
1776327172588,7.0480504,12.172951,11.965051,17.07597,-0.49981248,0.0768625,0.1651375,-6.8726158,109.4914013,31.400001525878906,11.572892,2.089,207.73314
1776327172593,-6.7240505,9.534,11.776051,16.676516,0.003575,0.7324625,-0.017875,-6.8726158,109.4914013,31.400001525878906,11.572892,2.089,207.73314
1776327172604,-6.9760504,7.2769504,26.728052,26.187986,-0.56787497,0.444125,0.0620125,-6.8726158,109.4914013,31.400001525878906,11.572892,2.089,207.73314
1776327172605,-6.45795,2.4060001,22.269001,23.88639,-0.2294875,0.181225,0.1577125,-6.8726158,109.4914013,31.400001525878906,11.572892,2.089,207.73314
1776327172613,-6.0010505,9.852,3.2280002,14.3604145,0.823075,-0.39985,0.177925,-6.8726158,109.4914013,31.400001525878906,11.572892,2.089,207.73314
1776327172616,-2.70105,17.977951,-7.9630504,18.749868,0.823075,-0.39985,0.177925,-6.8726158,109.4914013,31.400001525878906,11.572892,2.089,207.73314
1776327172618,2.25795,15.65295,-3.7210503,16.747437,-0.1390125,0.2057,0.57805,-6.8726158,109.4914013,31.400001525878906,11.572892,2.089,207.73314
1776327172627,9.25395,7.60305,4.29405,13.528079,-0.1390125,0.2057,0.57805,-6.8726158,109.4914013,31.400001525878906,11.572892,2.089,207.73314
1776327172636,16.97595,6.05805,6.8830504,18.140833,-0.33165,-0.1551,0.54408747,-6.8726158,109.4914013,31.400001525878906,11.572892,2.089,207.73314
1776327172636,10.275001,6.42,-2.8609502,13.587351,0.39627498,0.4653,-0.1423125,-6.8726158,109.4914013,31.400001525878906,11.572892,2.089,207.73314
1776327172641,2.6850002,9.991051,-6.7699504,12.608478,0.3037375,0.603625,-0.296725,-6.8726158,109.4914013,31.400001525878906,11.572892,2.089,207.73314
1776327172641,-8.7289505,17.15205,-5.151,18.45998,0.3037375,0.603625,-0.296725,-6.8726158,109.4914013,31.400001525878906,11.572892,2.089,207.73314
1776327172646,-12.56295,20.95305,-7.6540504,24.173286,0.214225,0.2503875,0.098175,-6.8726158,109.4914013,31.400001525878906,11.572892,2.089,207.73314
1776327172651,2.0760002,10.76895,-8.575951,15.972399,-0.3444375,-0.096525,0.5823125,-6.8726158,109.4914013,31.400001525878906,11.572892,2.089,207.73314
1776327172656,11.773951,1.848,9.988951,15.634934,-0.3785375,0.507925,0.262075,-6.8726158,109.4914013,31.400001525878906,11.572892,2.089,207.73314
1776327172662,6.768,-4.60305,21.78495,21.74445,-0.3785375,0.507925,0.262075,-6.8726158,109.4914013,31.400001525878906,11.572892,2.089,207.73314
1776327172674,7.2640505,7.7760005,15.205951,19.196457,0.6868125,0.3972375,2.75E-4,-6.8726158,109.4914013,31.400001525878906,11.572892,2.089,207.73314
1776327172675,-4.839,18.14595,-5.8620005,19.57825,0.7495125,0.427075,-0.2657875,-6.8726158,109.4914013,31.400001525878906,11.572892,2.089,207.73314
1776327172676,-9.57705,14.596951,-2.98095,18.084393,-0.1060125,0.4035625,0.0683375,-6.8726158,109.4914013,31.400001525878906,11.572892,2.089,207.73314
1776327172683,-3.9870002,10.177951,12.616951,16.97171,-0.3092375,0.292875,0.3674,-6.8726158,109.4914013,31.400001525878906,11.572892,2.089,207.73314
1776327172693,-2.42295,9.852,-1.02405,11.552039,0.13653749,-0.2550625,0.471625,-6.8726158,109.4914013,31.400001525878906,11.572892,2.089,207.73314
1776327172696,10.861051,12.83895,-9.085951,17.60183,0.13653749,-0.2550625,0.471625,-6.8726158,109.4914013,31.400001525878906,11.572892,2.089,207.73314
1776327172702,13.218,8.3220005,5.4820504,16.763304,-0.4774,0.40039998,0.356675,-6.8726158,109.4914013,31.400001525878906,11.572892,2.089,207.73314
1776327172706,0.70395005,1.7760001,16.55595,16.685308,-0.3029125,0.6100875,-0.0221375,-6.8726158,109.4914013,31.400001525878906,11.572892,2.089,207.73314
1776327172725,4.4929504,7.1359506,14.04405,16.442022,0.2292125,0.148225,-8.25E-4,-6.8726158,109.4914013,31.400001525878906,11.572892,2.089,207.73314
1776327172725,-5.742,11.028001,-4.914,13.983743,0.2292125,0.148225,-8.25E-4,-6.8726158,109.4914013,31.400001525878906,11.572892,2.089,207.73314
1776327172725,-11.016001,17.274,-1.4770501,19.2294,0.2292125,0.148225,-8.25E-4,-6.8726158,109.4914013,31.400001525878906,11.572892,2.089,207.73314
1776327172726,-5.0070004,8.884951,0.87600005,12.034841,-0.3135,-0.2635875,0.341825,-6.8726158,109.4914013,31.400001525878906,11.572892,2.089,207.73314
1776327172732,3.4300501,8.961,8.260051,12.535525,-0.3135,-0.2635875,0.341825,-6.8726158,109.4914013,31.400001525878906,11.572892,2.089,207.73314
1776327172732,6.16695,1.6800001,-0.88995004,7.6697826,0.25795,0.1354375,0.4013625,-6.8726158,109.4914013,31.400001525878906,11.572892,2.089,207.73314
1776327172737,17.40195,6.11595,4.8900003,16.800018,-0.0229625,0.051425,0.28325,-6.8726158,109.4914013,31.400001525878906,11.572892,2.089,207.73314
1776327172742,1.46595,13.66005,-6.8250003,15.632291,0.7602375,0.4664,-0.33715,-6.8726158,109.4914013,31.400001525878906,11.572892,2.089,207.73314
1776327172746,-2.8609502,17.310001,-9.44295,19.066154,0.2792625,0.6664625,0.0385,-6.8726158,109.4914013,31.400001525878906,11.572892,2.089,207.73314
1776327172759,-5.1150002,18.204,-0.76605004,18.95281,-0.3614875,0.456775,0.342925,-6.8726158,109.4914013,31.400001525878906,11.572892,2.089,207.73314
1776327172763,-5.3260503,13.203001,8.349,16.994,-0.111375,-0.032725,0.44935,-6.8726158,109.4914013,31.400001525878906,11.572892,2.089,207.73314
1776327172772,6.52395,5.0719504,2.63205,10.336895,-0.111375,-0.032725,0.44935,-6.8726158,109.4914013,31.400001525878906,11.572892,2.089,207.73314
1776327172787,13.5390005,7.1860504,7.6800003,15.782802,0.3089625,0.3823875,0.02145,-6.8726158,109.4914013,31.400001525878906,11.572892,2.089,207.73314
1776327172788,3.18495,5.76105,8.955001,12.047928,0.3089625,0.3823875,0.02145,-6.8726158,109.4914013,31.400001525878906,11.572892,2.089,207.73314
1776327172789,-1.7670001,9.64605,9.35505,13.252038,0.3089625,0.3823875,0.02145,-6.8726158,109.4914013,31.400001525878906,11.572892,2.089,207.73314
1776327172789,-5.44995,15.331951,4.2169504,16.097866,0.3089625,0.3823875,0.02145,-6.8726158,109.4914013,31.400001525878906,11.572892,2.089,207.73314
1776327172793,-10.77,14.439001,-0.84000003,17.645845,-0.340175,0.0961125,0.3216125,-6.8726158,109.4914013,31.400001525878906,11.572892,2.089,207.73314
1776327172793,-4.2000003,9.46605,11.41695,15.860407,-0.340175,0.0961125,0.3216125,-6.8726158,109.4914013,31.400001525878906,11.572892,2.089,207.73314
1776327172798,1.7119501,1.2040501,22.621052,21.346216,-0.340175,0.0961125,0.3216125,-6.8726158,109.4914013,31.400001525878906,11.572892,2.089,207.73314
1776327172803,6.37305,3.759,16.69095,18.875185,0.9944,0.16733749,0.097075,-6.8726158,109.4914013,31.400001525878906,11.572892,2.089,207.73314
1776327172808,8.02095,7.3399506,-3.6660001,12.954147,0.51755,0.0534875,-0.1456125,-6.8726158,109.4914013,31.400001525878906,11.572892,2.089,207.73314
1776327172812,5.6329503,15.579,-8.17605,17.369911,0.51755,0.0534875,-0.1456125,-6.8726158,109.4914013,31.400001525878906,11.572892,2.089,207.73314
1776327172829,-2.29095,15.496951,-11.25405,18.905018,-0.143275,0.5302,0.2982375,-6.8726158,109.4914013,31.400001525878906,11.572892,2.089,207.73314
1776327172829,-1.0669501,12.27105,-15.466051,19.598274,-0.143275,0.5302,0.2982375,-6.8726158,109.4914013,31.400001525878906,11.572892,2.089,207.73314
1776327172829,4.87095,13.63605,-10.885051,18.411636,-0.143275,0.5302,0.2982375,-6.8726158,109.4914013,31.400001525878906,11.572892,2.089,207.73314
1776327172832,4.51695,7.038,-6.2119503,12.016339,-0.520025,-0.0752125,0.1375,-6.8726158,109.4914013,31.400001525878906,11.572892,2.089,207.73314
1776327172838,10.38,5.175,2.7160501,11.933076,-0.520025,-0.0752125,0.1375,-6.8726158,109.4914013,31.400001525878906,11.572892,2.089,207.73314
1776327172842,9.118051,4.02495,7.9750504,12.598467,-0.258225,0.605825,-0.10835,-6.8726158,109.4914013,31.400001525878906,11.572892,2.089,207.73314
1776327172856,-6.1780505,10.486951,19.438051,20.867136,-0.20075,0.621775,-0.3339875,-6.8726158,109.4914013,31.400001525878906,11.572892,2.089,207.73314
1776327172858,-17.571001,7.9500003,25.365002,29.664772,0.2292125,0.018424999,0.1705,-6.8726158,109.4914013,31.400001525878906,11.572892,2.089,207.73314
1776327172861,-7.79295,6.73605,19.335001,23.459105,0.2292125,0.018424999,0.1705,-6.8726158,109.4914013,31.400001525878906,11.572892,2.089,207.73314
1776327172866,-0.97095007,9.711,0.42600003,12.50679,0.936925,0.082225,0.4035625,-6.8726158,109.4914013,31.400001525878906,11.572892,2.089,207.73314
1776327172872,4.596,11.17395,-13.287001,16.868538,-0.1560625,-0.131725,0.26633748,-6.8726158,109.4914013,31.400001525878906,11.572892,2.089,207.73314
1776327172877,13.684951,16.347,-3.2899501,20.630842,-0.0325875,0.58245,0.1034,-6.8726158,109.4914013,31.400001525878906,11.572892,2.089,207.73314
1776327172890,4.5700502,9.21,2.35905,12.565109,-0.0325875,0.58245,0.1034,-6.8726158,109.4914013,31.400001525878906,11.572892,2.089,207.73314
1776327172891,6.1260004,4.6930504,12.46605,14.242098,-0.23485,0.3642375,0.0726,-6.8726158,109.4914013,31.400001525878906,11.572892,2.089,207.73314
1776327172893,6.3130503,9.72795,2.8330503,12.39875,0.5038,0.1513875,-0.2008875,-6.8726158,109.4914013,31.400001525878906,11.572892,2.089,207.73314
1776327172899,-2.4109502,13.972051,-18.775951,21.302158,0.1142625,0.09185,-0.098725,-6.8726158,109.4914013,31.400001525878906,11.572892,2.089,207.73314
1776327172903,0.57000005,21.882002,-14.476951,25.255348,0.1142625,0.09185,-0.098725,-6.8726158,109.4914013,31.400001525878906,11.572892,2.089,207.73314
1776327172908,-4.46805,14.14605,-10.120951,19.417873,-0.3444375,0.276925,-0.1254,-6.8726158,109.4914013,31.400001525878906,11.572892,2.089,207.73314
1776327172913,3.4320002,5.8159504,13.981951,16.305462,-1.208625,-0.0572,0.25245,-6.8726158,109.4914013,31.400001525878906,11.572892,2.089,207.73314
1776327172926,7.1680503,-4.4380503,24.06495,23.660295,0.9156125,0.3961375,-0.2605625,-6.8726158,109.4914013,31.400001525878906,11.572892,2.089,207.73314
1776327172926,2.4190502,3.0979502,23.743952,23.985725,0.9156125,0.3961375,-0.2605625,-6.8726158,109.4914013,31.400001525878906,11.572892,2.089,207.73314
1776327172927,-4.0609503,13.902,8.00595,18.035929,0.7198125,0.6334625,-0.0881375,-6.8726158,109.4914013,31.400001525878906,11.572892,2.089,207.73314
1776327172933,-6.078,18.057001,0.45705003,18.853563,0.1216875,0.014162499,-0.04015,-6.8726158,109.4914013,31.400001525878906,11.572892,2.089,207.73314
1776327172941,-9.61995,15.142951,-5.37405,18.753002,-0.060225,0.2046,0.3865125,-6.8726158,109.4914013,31.400001525878906,11.572892,2.089,207.73314
1776327172943,1.8199501,8.190001,0.68505,10.484758,-0.060225,0.2046,0.3865125,-6.8726158,109.4914013,31.400001525878906,11.572892,2.089,207.73314
1776327172960,5.367,11.838,6.9880505,13.902734,0.06215,0.2057,0.21835,-6.8726158,109.4914013,31.400001525878906,11.572892,2.089,207.73314
1776327172961,7.8559504,10.647,4.27005,13.903364,0.06215,0.2057,0.21835,-6.8726158,109.4914013,31.400001525878906,11.572892,2.089,207.73314
1776327172961,19.837952,5.6970005,4.0090504,19.60109,0.06215,0.2057,0.21835,-6.8726158,109.4914013,31.400001525878906,11.572892,2.089,207.73314
1776327172964,9.8220005,6.6139503,0.14595,13.393967,0.3122625,0.77288747,-0.63827497,-6.8726158,109.4914013,31.400001525878906,11.572892,2.089,207.73314
1776327172966,-11.445001,9.831,1.2040501,14.7872715,0.3122625,0.77288747,-0.63827497,-6.8726158,109.4914013,31.400001525878906,11.572892,2.089,207.73314
1776327172971,-17.716951,18.532051,10.6050005,25.153574,0.13653749,0.197175,-0.362725,-6.8726158,109.4914013,31.400001525878906,11.572892,2.089,207.73314
1776327172978,-12.82005,10.22805,-2.4540002,18.296944,0.4995375,0.1280125,0.2545125,-6.8726158,109.4914013,31.400001525878906,11.572892,2.089,207.73314
1776327172991,9.68295,4.8229504,-10.51095,15.725883,-0.1549625,-0.0433125,0.32793748,-6.8726158,109.4914013,31.400001525878906,11.572892,2.089,207.73314
1776327172991,21.960001,2.5470002,-4.26,21.156311,-0.1549625,-0.0433125,0.32793748,-6.8726158,109.4914013,31.400001525878906,11.572892,2.089,207.73314
1776327172996,7.8240004,2.3389502,4.05,11.523479,-0.0539,0.670725,-0.30415,-6.8726158,109.4914013,31.400001525878906,11.572892,2.089,207.73314
1776327173003,1.3909501,13.1959505,20.938951,22.136106,-0.176275,0.3738625,-0.377575,-6.8726158,109.4914013,31.400001525878906,11.572892,2.089,207.73314
1776327173009,-12.321001,12.621,11.668051,21.345663,0.2355375,-0.1881,0.0342375,-6.8726158,109.4914013,31.400001525878906,11.572892,2.089,207.73314
1776327173014,-7.0189505,12.3,2.43105,15.764264,0.2355375,-0.1881,0.0342375,-6.8726158,109.4914013,31.400001525878906,11.572892,2.089,207.73314
1776327173020,4.7520003,10.465051,-1.6969501,12.44727,0.4739625,-0.187,0.056649998,-6.8726158,109.4914013,31.400001525878906,11.572892,2.089,207.73314
1776327173021,3.86805,14.0119505,-13.363951,18.285995,0.4739625,-0.187,0.056649998,-6.8726158,109.4914013,31.400001525878906,11.572892,2.089,207.73314
1776327173027,12.990001,12.649051,-18.513,24.387388,-0.34553748,0.64515,-0.065725,-6.8726158,109.4914013,31.400001525878906,11.572892,2.089,207.73314
1776327173028,12.94305,5.814,-10.714951,19.101635,-0.5242875,0.604725,-0.4626875,-6.8726158,109.4914013,31.400001525878906,11.572892,2.089,207.73314
1776327173029,-3.7830002,9.703951,7.7569504,14.209492,-0.5242875,0.604725,-0.4626875,-6.8726158,109.4914013,31.400001525878906,11.572892,2.089,207.73314
1776327173038,-9.0400505,7.7370005,13.696951,17.356775,-0.0092124995,-0.088,-0.0859375,-6.8726158,109.4914013,31.400001525878906,11.572892,2.089,207.73314
1776327173038,-1.01205,13.02795,11.92695,17.624887,-0.0092124995,-0.088,-0.0859375,-6.8726158,109.4914013,31.400001525878906,11.572892,2.089,207.73314
1776327173043,-2.47305,6.3430505,2.4550502,9.314764,0.176,0.2355375,0.02475,-6.8726158,109.4914013,31.400001525878906,11.572892,2.089,207.73314
1776327173048,5.7340503,4.3320003,14.169001,14.572789,0.2919125,0.394075,-0.1423125,-6.8726158,109.4914013,31.400001525878906,11.572892,2.089,207.73314
1776327173055,1.57095,4.72695,13.720951,14.592268,0.2919125,0.394075,-0.1423125,-6.8726158,109.4914013,31.400001525878906,11.572892,2.089,207.73314
1776327173063,-4.72905,11.8279505,6.37305,14.313332,0.5559125,0.1280125,0.02365,-6.8726158,109.4914013,31.400001525878906,11.572892,2.089,207.73314
1776327173070,-0.85695004,16.87005,-4.392,16.82542,0.5559125,0.1280125,0.02365,-6.8726158,109.4914013,31.400001525878906,11.572892,2.089,207.73314
1776327173073,3.0030003,17.727001,-2.4139502,17.877794,0.2292125,0.247225,0.1076625,-6.8726158,109.4914013,31.400001525878906,11.572892,2.089,207.73314
1776327173079,5.7049503,12.108001,-9.80895,16.850876,-0.16775,-0.0433125,0.065175,-6.8726158,109.4914013,31.400001525878906,11.572892,2.089,207.73314
1776327173082,17.341951,8.455951,-7.0140004,19.793428,-0.16775,-0.0433125,0.065175,-6.8726158,109.4914013,31.400001525878906,11.572892,2.089,207.73314
1776327173089,2.6440501,9.8880005,-0.97695005,12.184226,-0.1549625,0.49513748,-0.5212625,-6.8726158,109.4914013,31.400001525878906,11.572892,2.089,207.73314
1776327173094,-8.908951,13.45905,11.653951,18.363277,-0.076175,0.785675,-0.313775,-6.8726158,109.4914013,31.400001525878906,11.572892,2.089,207.73314
1776327173102,-3.7069502,14.005051,6.09,16.244905,0.1408,-0.013612499,-0.120037496,-6.8726158,109.4914013,31.400001525878906,11.572892,2.089,207.73314
1776327173105,4.8520503,7.5820503,-12.649951,15.669639,0.3845875,0.0759,0.062975,-6.8726158,109.4914013,31.400001525878906,11.572892,2.089,207.73314
1776327173110,7.5199504,5.445,-5.80305,11.892853,-0.340175,0.227975,-0.1115125,-6.8726158,109.4914013,31.400001525878906,11.572892,2.089,207.73314
1776327173111,-6.7390504,12.8220005,23.083052,24.179792,-0.66055,0.5302,-0.4296875,-6.8726158,109.4914013,31.400001525878906,11.572892,2.089,207.73314
1776327173114,-12.034051,3.55605,22.306952,25.311333,-0.1549625,-0.0369875,0.161975,-6.8726158,109.4914013,31.400001525878906,11.572892,2.089,207.73314
1776327173120,6.5220003,1.9699501,20.211,22.12501,0.704825,0.5377625,-0.1753125,-6.8726158,109.4914013,31.400001525878906,11.572892,2.089,207.73314
1776327173125,-2.6860502,3.2299502,10.356001,13.365488,0.704825,0.5377625,-0.1753125,-6.8726158,109.4914013,31.400001525878906,11.572892,2.089,207.73314
1776327173137,-6.8029504,12.589951,7.03905,15.43141,0.7123875,-0.032725,0.029975,-6.8726158,109.4914013,31.400001525878906,11.572892,2.089,207.73314
1776327173137,-0.90900004,18.786001,-3.66405,18.415531,0.7123875,-0.032725,0.029975,-6.8726158,109.4914013,31.400001525878906,11.572892,2.089,207.73314
1776327173137,1.0489501,11.919001,-15.826051,19.55513,0.7123875,-0.032725,0.029975,-6.8726158,109.4914013,31.400001525878906,11.572892,2.089,207.73314
1776327173147,12.847051,8.691,-9.69705,18.54497,0.2217875,-0.147675,0.2407625,-6.8726158,109.4914013,31.400001525878906,11.572892,2.089,207.73314
1776327173154,12.082951,9.375,-5.2849503,16.653652,0.1557875,0.3355,-0.24035,-6.8726158,109.4914013,31.400001525878906,11.572892,2.089,207.73314
1776327173158,5.34105,11.754001,-4.059,14.157626,-0.13695,0.247225,-0.131725,-6.8726158,109.4914013,31.400001525878906,11.572892,2.089,207.73314
1776327173162,5.9950504,8.05095,0.79995006,10.887264,-0.06875,0.7888375,-0.377575,-6.8726158,109.4914013,31.400001525878906,11.572892,2.089,207.73314
1776327173163,-1.968,6.1710005,4.5739503,8.520968,-0.161425,0.098175,-0.377575,-6.8726158,109.4914013,31.400001525878906,11.572892,2.089,207.73314
1776327173174,-8.50605,8.580001,3.1900501,11.700857,-0.161425,0.098175,-0.377575,-6.8726158,109.4914013,31.400001525878906,11.572892,2.089,207.73314
1776327173175,-5.589,10.21605,-2.83695,11.928596,-0.161425,0.098175,-0.377575,-6.8726158,109.4914013,31.400001525878906,11.572892,2.089,207.73314
1776327173179,0.21105,10.519951,-0.59805006,10.816959,-0.1412125,0.3790875,0.1034,-6.8726158,109.4914013,31.400001525878906,11.572892,2.089,207.73314
1776327173184,1.8919501,3.5839503,9.297001,10.276923,-0.550825,0.0045375,0.0416625,-6.8726158,109.4914013,31.400001525878906,11.572892,2.089,207.73314
1776327173189,6.6250505,6.2719502,23.803951,22.449215,0.1131625,0.45787498,-0.04235,-6.8726158,109.4914013,31.400001525878906,11.572892,2.089,207.73314
1776327173194,2.7160501,2.8560002,13.813951,15.982,0.1131625,0.45787498,-0.04235,-6.8726158,109.4914013,31.400001525878906,11.572892,2.089,207.73314
1776327173198,0.38805002,11.48295,8.823,14.785473,0.462275,0.164175,-0.2446125,-6.8726158,109.4914013,31.400001525878906,11.572892,2.089,207.73314
1776327173206,-7.2060003,17.851051,4.0279503,18.691103,0.6037625,0.4877125,-0.33825,-6.8726158,109.4914013,31.400001525878906,11.572892,2.089,207.73314
1776327173211,-4.86105,18.939001,-9.582001,21.157848,0.8017625,0.293975,-0.049775,-6.8726158,109.4914013,31.400001525878906,11.572892,2.089,207.73314
1776327173218,9.606001,14.27595,-17.14995,23.666777,0.61654997,-0.0859375,0.15455,-6.8726158,109.4914013,31.400001525878906,11.572892,2.089,207.73314
1776327173227,12.531,8.832001,-3.9540002,17.399261,-0.3848625,-0.2646875,0.2077625,-6.8726158,109.4914013,31.400001525878906,11.572892,2.089,207.73314
1776327173231,4.7200503,5.8450503,7.5730505,12.013817,-0.1901625,0.6675625,-0.148775,-6.8726158,109.4914013,31.400001525878906,11.572892,2.089,207.73314
1776327173232,0.012,10.81995,18.163052,19.316057,-0.1901625,0.6675625,-0.148775,-6.8726158,109.4914013,31.400001525878906,11.572892,2.089,207.73314
1776327173241,-6.9259505,14.982,12.207001,20.286413,0.282425,0.2833875,-0.0785125,-6.8726158,109.4914013,31.400001525878906,11.572892,2.089,207.73314
1776327173243,-1.4650501,7.3159504,6.19605,11.816069,0.282425,0.2833875,-0.0785125,-6.8726158,109.4914013,31.400001525878906,11.572892,2.089,207.73314
1776327173248,1.128,4.08705,2.2150502,6.190092,0.2633125,0.0950125,-0.0944625,-6.8726158,109.4914013,31.400001525878906,11.572892,2.089,207.73314
1776327173256,1.14495,7.9150505,-3.381,8.184216,0.275,-0.0433125,-0.247775,-6.8726158,109.4914013,31.400001525878906,11.572892,2.089,207.73314
1776327173260,1.176,11.20995,-13.225051,15.538163,0.7910375,0.2514875,-0.07535,-6.8726158,109.4914013,31.400001525878906,11.572892,2.089,207.73314
1776327173263,3.0370502,14.641951,-11.104951,18.008486,-0.10065,0.3972375,-0.0966625,-6.8726158,109.4914013,31.400001525878906,11.572892,2.089,207.73314
1776327173271,5.6620502,7.182,-1.6900501,11.041965,-0.10065,0.3972375,-0.0966625,-6.8726158,109.4914013,31.400001525878906,11.572892,2.089,207.73314
1776327173278,4.22205,3.9169502,11.91195,12.793296,-0.6477625,0.2344375,0.048125,-6.8726158,109.4914013,31.400001525878906,11.572892,2.089,207.73314
1776327173281,4.01595,2.97795,2.1360002,6.908081,0.152625,0.35145,-0.228525,-6.8726158,109.4914013,31.400001525878906,11.572892,2.089,207.73314
1776327173286,6.4620004,7.21005,-10.149,12.602868,0.3026375,0.227975,-0.1348875,-6.8726158,109.4914013,31.400001525878906,11.572892,2.089,207.73314
1776327173296,-5.1769505,15.550051,-5.3500504,16.312813,0.4802875,0.3460875,-0.5223625,-6.8726158,109.4914013,31.400001525878906,11.572892,2.089,207.73314
1776327173305,-14.470051,16.65195,16.497002,25.299927,-0.323125,0.8463125,-0.327525,-6.8726158,109.4914013,31.400001525878906,11.572892,2.089,207.73314
1776327173306,-3.1939502,7.6870503,28.03605,28.456564,-0.649825,-0.0891,-0.0583,-6.8726158,109.4914013,31.400001525878906,11.572892,2.089,207.73314
1776327173311,10.441951,-5.7289505,16.15905,21.750607,-0.26675,0.0759,0.357775,-6.8726158,109.4914013,31.400001525878906,11.572892,2.089,207.73314
1776327173318,13.105051,3.86505,8.245951,17.116997,0.51755,-0.120037496,0.0939125,-6.8726158,109.4914013,31.400001525878906,11.572892,2.089,207.73314
1776327173326,-5.9599504,18.56295,-5.98005,19.737616,0.6452875,0.2589125,-0.63085,-6.8726158,109.4914013,31.400001525878906,11.572892,2.089,207.73314
1776327173327,-13.21695,27.14895,0.38805002,28.10572,0.6452875,0.2589125,-0.63085,-6.8726158,109.4914013,31.400001525878906,11.572892,2.089,207.73314
1776327173331,-7.0519505,12.867001,6.1930504,18.362099,-0.2220625,0.05775,0.3557125,-6.8726158,109.4914013,31.400001525878906,11.572892,2.089,207.73314
1776327173341,9.958051,-0.25905,2.62905,11.914431,-0.2220625,0.05775,0.3557125,-6.8726158,109.4914013,31.400001525878906,11.572892,2.089,207.73314
1776327173343,20.845951,4.65495,-6.2580004,20.18868,1.1902,0.1854875,-0.22013749,-6.8726158,109.4914013,31.400001525878906,11.572892,2.089,207.73314
1776327173346,12.583051,12.56595,-29.77695,31.78405,1.1902,0.1854875,-0.22013749,-6.8726158,109.4914013,31.400001525878906,11.572892,2.089,207.73314
1776327173352,4.87605,20.709002,-20.826,30.174261,0.5900125,0.2706,-0.5116375,-6.8726158,109.4914013,31.400001525878906,11.572892,2.089,207.73314
1776327173363,-11.3560505,14.779051,3.3930001,21.190424,-1.2915375,0.5674625,-0.352,-6.8726158,109.4914013,31.400001525878906,11.572892,2.089,207.73314
1776327173365,-11.043,2.5519502,25.068,26.247028,-1.2915375,0.5674625,-0.352,-6.8726158,109.4914013,31.400001525878906,11.572892,2.089,207.73314
1776327173378,9.943951,-5.439,11.689951,18.275406,0.48785,-0.117837496,-0.0061875,-6.8726158,109.4914013,31.400001525878906,11.572892,2.089,207.73314
1776327173378,11.43795,2.5110002,-10.17105,16.063648,0.48785,-0.117837496,-0.0061875,-6.8726158,109.4914013,31.400001525878906,11.572892,2.089,207.73314
1776327173387,-2.22195,18.69495,-13.15995,21.588758,0.152625,0.769725,-0.5159,-6.8726158,109.4914013,31.400001525878906,11.572892,2.089,207.73314
1776327173394,-10.887,23.13705,-0.28005,24.775372,-0.6136625,0.1258125,-0.2487375,-6.8726158,109.4914013,31.400001525878906,11.572892,2.089,207.73314
1776327173396,-7.1790004,11.458951,13.728001,20.370466,-1.0883125,0.066275,0.2013,-6.8726158,109.4914013,31.400001525878906,11.572892,2.089,207.73314
1776327173408,6.67005,-3.7150502,24.534,24.62971,-1.0883125,0.066275,0.2013,-6.8726158,109.4914013,31.400001525878906,11.572892,2.089,207.73314
1776327173410,14.736001,-0.48600003,18.12,23.61447,1.000725,0.3705625,-0.2541,-6.8726158,109.4914013,31.400001525878906,11.572892,2.089,207.73314
1776327173411,2.60295,16.507952,0.97905004,18.115343,0.952875,-0.0785125,0.193875,-6.8726158,109.4914013,31.400001525878906,11.572892,2.089,207.73314
1776327173412,-5.9869504,24.486002,-10.95195,25.610018,0.952875,-0.0785125,0.193875,-6.8726158,109.4914013,31.400001525878906,11.572892,2.089,207.73314
1776327173412,-6.8580003,7.7370005,-1.3770001,13.466179,0.952875,-0.0785125,0.193875,-6.8726158,109.4914013,31.400001525878906,11.572892,2.089,207.73314
1776327173412,-10.113001,3.1720502,18.54195,19.779156,0.952875,-0.0785125,0.193875,-6.8726158,109.4914013,31.400001525878906,11.572892,2.089,207.73314
1776327173412,-5.39505,7.3729506,15.946051,18.658072,0.952875,-0.0785125,0.193875,-6.8726158,109.4914013,31.400001525878906,11.572892,2.089,207.73314
1776327173416,10.176001,7.58895,-0.14805001,13.887679,0.952875,-0.0785125,0.193875,-6.8726158,109.4914013,31.400001525878906,11.572892,2.089,207.73314
1776327173421,15.0070505,1.7400001,-3.561,15.194811,0.117425,-0.3125375,0.130075,-6.8726158,109.4914013,31.400001525878906,11.572892,2.089,207.73314
1776327173428,6.426,-1.22895,8.181001,11.419228,0.002475,0.182325,-0.296725,-6.8726158,109.4914013,31.400001525878906,11.572892,2.089,207.73314
1776327173435,-11.524051,11.674951,7.839,16.828852,0.8166125,0.262075,-0.59894997,-6.8726158,109.4914013,31.400001525878906,11.572892,2.089,207.73314
1776327173436,-14.067,21.142052,-5.0719504,24.082396,0.8166125,0.262075,-0.59894997,-6.8726158,109.4914013,31.400001525878906,11.572892,2.089,207.73314
1776327173441,1.245,15.70995,-19.36095,24.787642,0.6964375,-0.1445125,-0.0605,-6.8726158,109.4914013,31.400001525878906,11.572892,2.089,207.73314
1776327173461,14.772,13.785001,-0.33195,21.123634,-0.290125,-0.1901625,0.3449875,-6.8726158,109.4914013,31.400001525878906,11.572892,2.089,207.73314
1776327173461,7.3840504,6.5779505,7.04295,13.937292,0.5462875,0.5047625,-0.2998875,-6.8726158,109.4914013,31.400001525878906,11.572892,2.089,207.73314
1776327173461,14.479951,9.09,14.800951,20.878168,0.5462875,0.5047625,-0.2998875,-6.8726158,109.4914013,31.400001525878906,11.572892,2.089,207.73314
1776327173462,5.3959503,9.81105,-2.8609502,13.421019,0.5462875,0.5047625,-0.2998875,-6.8726158,109.4914013,31.400001525878906,11.572892,2.089,207.73314
1776327173468,-5.256,16.795052,-18.115051,22.888828,0.4101625,0.296175,-0.491425,-6.8726158,109.4914013,31.400001525878906,11.572892,2.089,207.73314
1776327173470,-5.78805,19.341002,-13.93605,24.202883,0.4101625,0.296175,-0.491425,-6.8726158,109.4914013,31.400001525878906,11.572892,2.089,207.73314
1776327173475,-5.8620005,14.13195,-12.913051,20.857008,-0.1304875,0.2173875,-0.2594625,-6.8726158,109.4914013,31.400001525878906,11.572892,2.089,207.73314
1776327173480,6.46395,1.5510001,-4.00605,10.380385,-0.5135625,0.15455,0.1098625,-6.8726158,109.4914013,31.400001525878906,11.572892,2.089,207.73314
1776327173491,11.25405,-4.3369503,16.449001,18.393576,-1.08185,-0.0625625,-0.032725,-6.8726158,109.4914013,31.400001525878906,11.572892,2.089,207.73314
1776327173492,-0.60300004,-0.89805007,35.376003,31.992744,-1.08185,-0.0625625,-0.032725,-6.8726158,109.4914013,31.400001525878906,11.572892,2.089,207.73314
1776327173496,-8.283,4.4110503,28.333052,30.275932,0.2440625,0.7324625,-0.5042125,-6.8726158,109.4914013,31.400001525878906,11.572892,2.089,207.73314
1776327173501,-8.049001,8.94705,23.421001,27.120867,0.1951125,-0.033825,-0.5031125,-6.8726158,109.4914013,31.400001525878906,11.572892,2.089,207.73314
1776327173511,-13.31805,6.1519504,16.875,23.312407,0.7953,0.2833875,-0.032725,-6.8726158,109.4914013,31.400001525878906,11.572892,2.089,207.73314
1776327173515,-5.2320004,12.49905,8.19495,17.330734,0.7953,0.2833875,-0.032725,-6.8726158,109.4914013,31.400001525878906,11.572892,2.089,207.73314
1776327173523,4.10505,17.29305,-14.317051,21.724365,1.050775,-0.508475,-0.00935,-6.8726158,109.4914013,31.400001525878906,11.572892,2.089,207.73314
1776327173529,11.71905,14.57505,-30.286951,32.821587,1.0922999,-0.0955625,0.147125,-6.8726158,109.4914013,31.400001525878906,11.572892,2.089,207.73314
1776327173531,15.639001,19.854,-13.888051,29.634819,0.1962125,-0.0996875,0.13213749,-6.8726158,109.4914013,31.400001525878906,11.572892,2.089,207.73314
1776327173536,6.59595,21.219002,-6.7440004,24.504095,-0.13475,0.6664625,-0.149875,-6.8726158,109.4914013,31.400001525878906,11.572892,2.089,207.73314
1776327173542,14.37705,12.417001,-5.4310503,20.707203,-0.6114625,0.246125,-0.14025,-6.8726158,109.4914013,31.400001525878906,11.572892,2.089,207.73314
1776327173546,16.617,1.692,-0.34695002,17.50666,-0.6114625,0.246125,-0.14025,-6.8726158,109.4914013,31.400001525878906,11.572892,2.089,207.73314
1776327173561,-4.0350003,3.9,7.48395,10.984678,-0.6114625,0.246125,-0.14025,-6.8726158,109.4914013,31.400001525878906,11.572892,2.089,207.73314
1776327173561,-22.261051,10.288051,4.87605,22.199724,-0.6114625,0.246125,-0.14025,-6.8726158,109.4914013,31.400001525878906,11.572892,2.089,207.73314
1776327173576,-16.371,16.96095,6.885,24.086205,-0.1623875,0.1056,-0.0199375,-6.8726158,109.4914013,31.400001525878906,11.572892,2.089,207.73314
1776327173579,-8.62605,-0.72105,2.93805,12.130169,-0.7297125,-0.1412125,0.276925,-6.8726158,109.4914013,31.400001525878906,11.572892,2.089,207.73314
1776327173581,9.14595,-6.3559504,30.270002,28.229223,-0.7297125,-0.1412125,0.276925,-6.8726158,109.4914013,31.400001525878906,11.572892,2.089,207.73314
1776327173582,5.7910504,-3.5329502,30.073952,30.309479,-0.5126,-0.0253,0.080025,-6.8726158,109.4914013,31.400001525878906,11.572892,2.089,207.73314
1776327173595,6.6199503,3.8689501,0.33705002,12.201921,1.20505,-0.1007875,-0.3796375,-6.8726158,109.4914013,31.400001525878906,11.572892,2.089,207.73314
