timestamp,ax,ay,az,magnitude,gx,gy,gz,lat,lon,alt,speed,accuracy,bearing
1776330076012,14.32005,8.748,0.52395004,17.753704,-0.4912875,0.1375,0.2003375,-6.8887754,109.5312347,31.200000762939453,10.411187,2.546,180.94102
1776330082384,-6.7219505,19.621052,3.4099503,16.815195,0.42075,-0.2668875,0.02255,-6.8889993,109.5312327,31.200000762939453,6.840019,2.532,181.88385
1776330082385,1.6720501,9.02595,-2.96895,11.0812025,0.42075,-0.2668875,0.02255,-6.8889993,109.5312327,31.200000762939453,6.840019,2.532,181.88385
1776330082385,0.46905002,10.153951,7.3279505,12.240901,0.42075,-0.2668875,0.02255,-6.8889993,109.5312327,31.200000762939453,6.840019,2.532,181.88385
1776330082385,5.6260505,6.9349504,3.20895,10.039474,0.42075,-0.2668875,0.02255,-6.8889993,109.5312327,31.200000762939453,6.840019,2.532,181.88385
1776330082385,-6.681,2.41995,17.019001,16.762167,0.42075,-0.2668875,0.02255,-6.8889993,109.5312327,31.200000762939453,6.840019,2.532,181.88385
1776330082385,-9.948001,19.84905,2.1340501,21.19623,0.42075,-0.2668875,0.02255,-6.8889993,109.5312327,31.200000762939453,6.840019,2.532,181.88385
1776330082386,17.364,-1.9950001,1.26195,18.258228,0.42075,-0.2668875,0.02255,-6.8889993,109.5312327,31.200000762939453,6.840019,2.532,181.88385
1776330082386,-4.1929502,23.154001,-2.9190001,22.620407,0.42075,-0.2668875,0.02255,-6.8889993,109.5312327,31.200000762939453,6.840019,2.532,181.88385
1776330082386,6.0400505,11.81595,-13.882951,19.888147,0.42075,-0.2668875,0.02255,-6.8889993,109.5312327,31.200000762939453,6.840019,2.532,181.88385
1776330082386,-2.8540502,8.179951,14.67195,17.60873,0.42075,-0.2668875,0.02255,-6.8889993,109.5312327,31.200000762939453,6.840019,2.532,181.88385
1776330082386,7.4560504,12.331051,-9.747001,17.439253,0.42075,-0.2668875,0.02255,-6.8889993,109.5312327,31.200000762939453,6.840019,2.532,181.88385
1776330082386,-6.6210003,2.67405,16.257,17.69271,0.42075,-0.2668875,0.02255,-6.8889993,109.5312327,31.200000762939453,6.840019,2.532,181.88385
1776330082386,-2.013,17.64105,-8.590051,19.317978,0.42075,-0.2668875,0.02255,-6.8889993,109.5312327,31.200000762939453,6.840019,2.532,181.88385
1776330082386,13.75905,-0.522,-2.1360002,15.010511,0.42075,-0.2668875,0.02255,-6.8889993,109.5312327,31.200000762939453,6.840019,2.532,181.88385
1776330082386,-12.3810005,16.36395,12.001051,22.019455,0.42075,-0.2668875,0.02255,-6.8889993,109.5312327,31.200000762939453,6.840019,2.532,181.88385
1776330082387,9.681001,8.314051,-7.419,16.212683,0.42075,-0.2668875,0.02255,-6.8889993,109.5312327,31.200000762939453,6.840019,2.532,181.88385
1776330082387,-6.4350004,11.50695,12.027,17.519072,-0.1783375,0.247225,-0.2882,-6.8889993,109.5312327,31.200000762939453,6.840019,2.532,181.88385
1776330082387,-3.012,12.630001,5.95095,14.930181,0.087725,-0.1029875,0.131175,-6.8889993,109.5312327,31.200000762939453,6.840019,2.532,181.88385
1776330082387,8.524051,4.638,1.6380001,10.859172,0.087725,-0.1029875,0.131175,-6.8889993,109.5312327,31.200000762939453,6.840019,2.532,181.88385
1776330082390,7.46505,1.503,-2.38695,8.55599,-0.516725,0.4334,-0.214775,-6.8889993,109.5312327,31.200000762939453,6.840019,2.532,181.88385
1776330082396,-5.04495,14.023951,9.7570505,15.962042,0.5303375,-0.537075,0.0694375,-6.8889993,109.5312327,31.200000762939453,6.840019,2.532,181.88385
1776330082404,9.9199505,5.9029503,-7.596,14.247166,0.0504625,0.0842875,-0.253,-6.8889993,109.5312327,31.200000762939453,6.840019,2.532,181.88385
1776330082405,-8.266951,11.742001,10.276951,16.976463,0.0504625,0.0842875,-0.253,-6.8889993,109.5312327,31.200000762939453,6.840019,2.532,181.88385
1776330082405,-0.50205004,11.253,0.30105,12.409866,0.0504625,0.0842875,-0.253,-6.8889993,109.5312327,31.200000762939453,6.840019,2.532,181.88385
1776330082406,0.51495004,2.66205,15.345,14.948138,0.0504625,0.0842875,-0.253,-6.8889993,109.5312327,31.200000762939453,6.840019,2.532,181.88385
1776330082406,-0.588,22.64895,-16.185001,25.264637,0.0504625,0.0842875,-0.253,-6.8889993,109.5312327,31.200000762939453,6.840019,2.532,181.88385
1776330082406,11.017051,0.76095,-4.38705,14.559158,0.0504625,0.0842875,-0.253,-6.8889993,109.5312327,31.200000762939453,6.840019,2.532,181.88385
1776330082406,-10.27095,12.670951,14.443951,20.341427,0.0504625,0.0842875,-0.253,-6.8889993,109.5312327,31.200000762939453,6.840019,2.532,181.88385
1776330082406,5.15205,4.28805,0.36105,9.438505,0.0504625,0.0842875,-0.253,-6.8889993,109.5312327,31.200000762939453,6.840019,2.532,181.88385
1776330082406,-5.61495,9.7560005,5.97795,12.083955,0.0504625,0.0842875,-0.253,-6.8889993,109.5312327,31.200000762939453,6.840019,2.532,181.88385
1776330082406,4.84005,10.51095,-5.1130505,12.537643,0.0504625,0.0842875,-0.253,-6.8889993,109.5312327,31.200000762939453,6.840019,2.532,181.88385
1776330082406,7.1590505,6.8560505,0.89295006,10.469631,0.0504625,0.0842875,-0.253,-6.8889993,109.5312327,31.200000762939453,6.840019,2.532,181.88385
1776330082415,-2.5879502,19.506,0.90495,17.852108,0.1079375,-0.47547498,-0.2349875,-6.8889993,109.5312327,31.200000762939453,6.840019,2.532,181.88385
1776330082430,5.037,-1.1520001,10.5400505,12.96118,-1.21275,-0.6584875,0.7249,-6.8889993,109.5312327,31.200000762939453,6.840019,2.532,181.88385
1776330082431,-6.2719502,13.741951,4.0230002,15.097931,-1.21275,-0.6584875,0.7249,-6.8889993,109.5312327,31.200000762939453,6.840019,2.532,181.88385
1776330082435,0.18705001,14.724001,-5.46495,15.584856,-0.795575,0.3323375,0.2982375,-6.8889993,109.5312327,31.200000762939453,6.840019,2.532,181.88385
1776330082453,9.0720005,-2.4840002,12.585001,15.6862335,0.642125,0.1439625,0.0438625,-6.8889993,109.5312327,31.200000762939453,6.840019,2.532,181.88385
1776330082456,0.87600005,23.748001,-22.599,29.372486,0.642125,0.1439625,0.0438625,-6.8889993,109.5312327,31.200000762939453,6.840019,2.532,181.88385
1776330082466,1.7989501,1.9750501,0.67995006,8.079855,-1.3149124,-0.0433125,-0.1881,-6.8889993,109.5312327,31.200000762939453,6.840019,2.532,181.88385
1776330082486,-5.42595,9.62205,13.038001,15.286711,-0.0666875,0.4398625,-0.5520625,-6.8889993,109.5312327,31.200000762939453,6.840019,2.532,181.88385
1776330082487,10.732051,2.772,-7.9009504,13.946924,-0.0666875,0.4398625,-0.5520625,-6.8889993,109.5312327,31.200000762939453,6.840019,2.532,181.88385
1776330082497,-9.86205,11.29395,4.05405,15.215131,0.5038,0.3790875,-0.3551625,-6.8889993,109.5312327,31.200000762939453,6.840019,2.532,181.88385
1776330082506,0.79995006,10.84395,-2.8590002,12.037426,-0.454025,-0.14025,0.4844125,-6.8889993,109.5312327,31.200000762939453,6.840019,2.532,181.88385
1776330082516,6.0760503,2.0370002,13.45695,14.331438,0.151525,0.4057625,-0.38073748,-6.8889993,109.5312327,31.200000762939453,6.840019,2.532,181.88385
1776330082531,-4.43505,22.407001,-3.59205,21.364223,0.512325,-0.0444125,0.1258125,-6.8889993,109.5312327,31.200000762939453,6.840019,2.532,181.88385
1776330082536,1.149,2.3479502,15.382951,16.755621,0.740025,0.948475,-0.1753125,-6.8889993,109.5312327,31.200000762939453,6.840019,2.532,181.88385
1776330082546,-6.2140503,14.791051,14.655001,20.734493,0.7134875,0.2418625,0.4461875,-6.8889993,109.5312327,31.200000762939453,6.840019,2.532,181.88385
1776330082556,5.6569505,12.616051,-5.163,15.953945,-0.520025,-0.2732125,-0.1530375,-6.8889993,109.5312327,31.200000762939453,6.840019,2.532,181.88385
1776330082568,-3.6319501,11.20005,9.59595,15.342219,0.543125,-0.2541,0.3801875,-6.8889993,109.5312327,31.200000762939453,6.840019,2.532,181.88385
1776330082577,10.761001,5.4310503,-16.81995,19.62296,0.2963125,0.61215,-0.1997875,-6.8889993,109.5312327,31.200000762939453,6.840019,2.532,181.88385
1776330082586,1.13505,14.206051,-13.78005,19.783772,0.1398375,0.540925,-0.5350125,-6.8889993,109.5312327,31.200000762939453,6.840019,2.532,181.88385
1776330082600,-2.7850502,6.945,12.50205,15.612917,-1.1543125,-0.016775,0.3694625,-6.8889993,109.5312327,31.200000762939453,6.840019,2.532,181.88385
1776330082607,9.501,-4.40205,0.08295,11.4998455,0.38775,-0.5754375,-0.43505,-6.8889993,109.5312327,31.200000762939453,6.840019,2.532,181.88385
1776330082617,-14.512951,20.71095,-5.98005,23.089663,-0.7733,-0.5808,0.341825,-6.8889993,109.5312327,31.200000762939453,6.840019,2.532,181.88385
1776330082631,2.8980002,3.1920002,6.945,11.157427,-0.3529625,-0.2635875,0.176825,-6.8889993,109.5312327,31.200000762939453,6.840019,2.532,181.88385
1776330082640,2.70405,8.571,15.67695,16.687836,0.12595,-0.7330125,-0.100925,-6.8889993,109.5312327,31.200000762939453,6.840019,2.532,181.88385
1776330082650,-1.3429501,8.619,5.2330503,11.4754,-0.0229625,0.5973,-0.279675,-6.8889993,109.5312327,31.200000762939453,6.840019,2.532,181.88385
1776330082662,-10.288051,15.95505,4.4380503,17.892082,0.315425,-0.2094125,0.5418875,-6.8889993,109.5312327,31.200000762939453,6.840019,2.532,181.88385
1776330082670,9.096001,14.3550005,-9.747001,19.251217,-1.0894125,-0.522225,0.85153747,-6.8889993,109.5312327,31.200000762939453,6.840019,2.532,181.88385
1776330082682,12.111001,-1.1740501,10.63395,16.777996,1.180575,-0.3647875,-0.344575,-6.8889993,109.5312327,31.200000762939453,6.840019,2.532,181.88385
1776330082690,-11.446951,23.917952,-10.411051,26.144943,-0.24007499,-0.6829625,0.440825,-6.8889993,109.5312327,31.200000762939453,6.840019,2.532,181.88385
1776330082705,8.00595,1.3470001,-6.0400505,13.324098,-0.9053,0.013062499,-0.15619999,-6.8889993,109.5312327,31.200000762939453,6.840019,2.532,181.88385
1776330082716,-2.67705,11.169001,11.548051,15.694526,-0.6615125,-0.096525,0.3557125,-6.8889993,109.5312327,31.200000762939453,6.840019,2.532,181.88385
1776330082720,4.27995,7.3680005,2.3850002,10.2176,-0.5775,0.38334998,-0.253,-6.8889993,109.5312327,31.200000762939453,6.840019,2.532,181.88385
1776330082731,-8.94705,11.701051,15.057001,18.894445,0.1387375,-0.3201,0.4972,-6.8889993,109.5312327,31.200000762939453,6.840019,2.532,181.88385
1776330082740,0.84795004,11.93805,-4.6480503,14.050106,-0.7838875,-0.3243625,0.4758875,-6.8889993,109.5312327,31.200000762939453,6.840019,2.532,181.88385
1776330082751,0.9580501,3.2730002,9.07905,10.568766,0.347325,-0.47547498,0.1918125,-6.8889993,109.5312327,31.200000762939453,6.840019,2.532,181.88385
1776330082763,-1.3450501,16.924952,0.52905005,15.702997,-0.6551875,0.490875,0.2077625,-6.8889993,109.5312327,31.200000762939453,6.840019,2.532,181.88385
1776330082771,7.6710005,-5.8890004,6.4849505,12.455677,0.0163625,0.246125,-0.5594875,-6.8889993,109.5312327,31.200000762939453,6.840019,2.532,181.88385
1776330082781,-14.70495,20.349,1.4650501,22.6102,-1.0074625,-0.9703375,0.962225,-6.8889993,109.5312327,31.200000762939453,6.840019,2.532,181.88385
1776330082791,16.07505,4.4560504,-11.77995,20.859108,0.3388,1.0250624,-0.4521,-6.8889993,109.5312327,31.200000762939453,6.840019,2.532,181.88385
1776330082802,2.02095,7.7800503,11.005051,15.0742855,0.413325,-0.1986875,0.113025,-6.8889993,109.5312327,31.200000762939453,6.840019,2.532,181.88385
1776330082811,0.65595,17.437052,-16.11495,22.016712,-1.0478874,-0.53185,-0.30525,-6.8889993,109.5312327,31.200000762939453,6.840019,2.532,181.88385
1776330082829,-3.1990502,12.0390005,6.5119505,15.648308,-0.3795,0.28655,-0.131725,-6.8889993,109.5312327,31.200000762939453,6.840019,2.532,181.88385
1776330082835,4.7730002,6.3510003,12.07995,14.696288,0.308,0.6249375,-0.4499,-6.8889993,109.5312327,31.200000762939453,6.840019,2.532,181.88385
1776330082845,2.2420502,5.9149504,-1.506,8.141193,0.0738375,-0.49665,-0.2509375,-6.8889993,109.5312327,31.200000762939453,6.840019,2.532,181.88385
1776330082852,-15.564001,20.737051,1.4629501,22.403666,-0.929775,0.001375,0.73562497,-6.8889993,109.5312327,31.200000762939453,6.840019,2.532,181.88385
1776330082862,13.44795,-9.432,14.08695,21.792042,1.1380875,0.3249125,-0.5850625,-6.8889993,109.5312327,31.200000762939453,6.840019,2.532,181.88385
1776330082872,-6.11805,16.03095,8.404051,19.643435,-0.33055,-0.53295,0.5589375,-6.8889993,109.5312327,31.200000762939453,6.840019,2.532,181.88385
1776330082882,-0.07305,13.023001,-10.10595,17.116175,0.12705,0.2759625,-0.032725,-6.8889993,109.5312327,31.200000762939453,6.840019,2.532,181.88385
1776330082892,1.6140001,9.883051,7.4940004,13.429304,0.1951125,-0.325325,0.2737625,-6.8889993,109.5312327,31.200000762939453,6.840019,2.532,181.88385
1776330082902,13.804951,12.024,-11.1,19.813398,-0.29755,0.6334625,-0.4285875,-6.8889993,109.5312327,31.200000762939453,6.840019,2.532,181.88385
1776330082912,-1.36395,8.88,2.8620002,11.50587,0.0675125,0.5759875,-0.917125,-6.8889993,109.5312327,31.200000762939453,6.840019,2.532,181.88385
1776330082922,-11.953051,16.335001,9.04605,20.037712,-0.092125,-0.6499625,0.7898,-6.8889993,109.5312327,31.200000762939453,6.840019,2.532,181.88385
1776330082932,12.555,-1.1040001,8.478001,16.159206,0.4367,0.1397,-0.345675,-6.8889993,109.5312327,31.200000762939453,6.840019,2.532,181.88385
1776330082942,-11.076,14.239951,17.304,23.229961,0.2792625,-0.341275,0.41635,-6.8889993,109.5312327,31.200000762939453,6.840019,2.532,181.88385
1776330082953,0.84495,7.9740005,-8.30805,13.883216,0.0886875,0.115225,-0.0380875,-6.8889993,109.5312327,31.200000762939453,6.840019,2.532,181.88385
1776330082965,-0.18105,17.775002,-3.8389502,17.325232,-0.648725,-0.5776375,0.5355625,-6.8889993,109.5312327,31.200000762939453,6.840019,2.532,181.88385
1776330082972,15.603001,2.6569502,-7.7830505,17.575216,0.2866875,0.8058875,-0.5808,-6.8889993,109.5312327,31.200000762939453,6.840019,2.532,181.88385
1776330082982,-5.53905,13.276951,-1.14195,15.060086,-0.2039125,-0.2519,0.2726625,-6.8889993,109.5312327,31.200000762939453,6.840019,2.532,181.88385
1776330083000,0.012,11.755951,-9.16005,14.934676,0.12485,0.2376,-0.76065,-6.8889993,109.5312327,31.200000762939453,6.840019,2.532,181.88385
1776330083003,8.217,-4.3900504,7.4790006,12.544411,0.12485,0.2376,-0.76065,-6.8889993,109.5312327,31.200000762939453,6.840019,2.532,181.88385
1776330083013,-11.03505,18.223051,11.6629505,21.93878,-0.4125,-0.2583625,0.28325,-6.8889993,109.5312327,31.200000762939453,6.840019,2.532,181.88385
1776330083027,1.1020501,-1.7149501,18.432001,19.223265,0.461175,0.0928125,-0.4882625,-6.8889993,109.5312327,31.200000762939453,6.840019,2.532,181.88385
1776330083031,-7.4620504,20.74695,-0.59595,21.489563,-0.117699996,-0.2657875,0.4994,-6.8889993,109.5312327,31.200000762939453,6.840019,2.532,181.88385
1776330083041,9.978001,9.238951,-10.936951,18.25867,-0.72008747,0.3790875,0.3397625,-6.8889993,109.5312327,31.200000762939453,6.840019,2.532,181.88385
1776330083051,-1.1179501,12.955951,9.963,16.757284,0.479325,0.148225,0.35145,-6.8889993,109.5312327,31.200000762939453,6.840019,2.532,181.88385
1776330083061,5.92005,9.637051,-11.056951,16.005016,-0.72435,0.49513748,-0.166925,-6.8889993,109.5312327,31.200000762939453,6.840019,2.532,181.88385
1776330083071,-7.5649505,7.3159504,10.13805,14.891181,0.1419,0.64735,-0.5468375,-6.8889993,109.5312327,31.200000762939453,6.840019,2.532,181.88385
1776330083087,2.70105,12.08205,2.9890501,13.167047,-0.095425,0.540925,-0.408375,-6.8889993,109.5312327,31.200000762939453,6.840019,2.532,181.88385
1776330083092,9.769051,-1.2720001,7.5850506,12.579998,0.6006,-0.0358875,-0.738375,-6.8889993,109.5312327,31.200000762939453,6.840019,2.532,181.88385
1776330083103,-14.071951,21.645,-1.056,23.186998,1.034825,0.0950125,0.111925,-6.8889993,109.5312327,31.200000762939453,6.840019,2.532,181.88385
1776330083115,10.750951,7.0480504,-18.10305,22.399895,-0.1623875,0.93885,-0.2275625,-6.8889993,109.5312327,31.200000762939453,6.840019,2.532,181.88385
1776330083127,1.4820001,11.48295,6.543,15.119238,-0.652025,-0.4052125,0.12155,-6.8889993,109.5312327,31.200000762939453,6.840019,2.532,181.88385
1776330083138,2.733,-0.9480001,8.254951,10.021548,-0.0474375,0.2365,-0.2743125,-6.8889993,109.5312327,31.200000762939453,6.840019,2.532,181.88385
1776330083147,-15.013051,10.135051,9.592051,18.401741,0.32065,0.100375,0.41525,-6.8889993,109.5312327,31.200000762939453,6.840019,2.532,181.88385
1776330083154,2.8950002,5.5789504,-3.97005,9.627691,-0.75845,-0.43285,0.6067875,-6.8889993,109.5312327,31.200000762939453,6.840019,2.532,181.88385
1776330083166,6.4500003,4.43505,6.6169505,10.125293,1.066725,0.6994625,-0.4393125,-6.8889993,109.5312327,31.200000762939453,6.840019,2.532,181.88385
1776330083175,-2.67405,22.456951,-4.854,20.529572,-0.5072375,-0.40301248,0.323675,-6.8889993,109.5312327,31.200000762939453,6.840019,2.532,181.88385
1776330083184,6.0690002,5.89095,0.60795003,10.889691,-0.158125,-0.570075,-0.30195,-6.8889993,109.5312327,31.200000762939453,6.840019,2.532,181.88385
1776330083195,-6.5280004,17.542952,8.65005,18.674112,-0.340175,0.0631125,0.4217125,-6.8889993,109.5312327,31.200000762939453,6.840019,2.532,181.88385
1776330083205,7.9489503,3.9100502,-2.01795,11.003228,0.3037375,0.6835125,-0.2828375,-6.8889993,109.5312327,31.200000762939453,6.840019,2.532,181.88385
1776330083215,-9.58905,14.235001,13.302001,19.572409,-0.422125,-0.66055,0.4588375,-6.8889993,109.5312327,31.200000762939453,6.840019,2.532,181.88385
1776330083236,6.9690003,-0.36900002,5.2110004,10.882186,-0.126225,0.3653375,0.02365,-6.8889993,109.5312327,31.200000762939453,6.840019,2.532,181.88385
1776330083236,-8.22105,12.175051,7.01205,15.19916,0.165275,-0.26895,0.751575,-6.8889993,109.5312327,31.200000762939453,6.840019,2.532,181.88385
1776330083245,5.3700004,12.798,-11.91195,17.67175,-0.438075,-0.122099996,-0.0369875,-6.8889993,109.5312327,31.200000762939453,6.840019,2.532,181.88385
1776330083255,11.079,5.5150504,-3.27795,13.776381,0.43559998,0.69836247,-0.4637875,-6.8889993,109.5312327,31.200000762939453,6.840019,2.532,181.88385
1776330083269,-4.605,15.159,-1.4080501,15.4796505,-0.6711375,0.194975,-0.0699875,-6.8889993,109.5312327,31.200000762939453,6.840019,2.532,181.88385
1776330083276,-0.708,2.0989501,8.06595,9.787604,0.4580125,0.801625,-0.17435,-6.8889993,109.5312327,31.200000762939453,6.840019,2.532,181.88385
1776330083295,-3.6079502,14.002951,5.64195,14.375096,-0.3168,-0.3966875,-0.2435125,-6.8889993,109.5312327,31.200000762939453,6.840019,2.532,181.88385
1776330083298,7.4340005,-1.164,3.59505,9.546446,0.608025,0.309925,-0.4126375,-6.8889993,109.5312327,31.200000762939453,6.840019,2.532,181.88385
1776330083306,-9.346951,16.527,8.60295,18.585365,0.6389625,0.034375,0.38225,-6.8889993,109.5312327,31.200000762939453,6.840019,2.532,181.88385
1776330083316,8.863951,6.1210504,-6.3439503,13.718117,0.7261375,0.9516375,-0.1838375,-6.8889993,109.5312327,31.200000762939453,6.840019,2.532,181.88385
1776330083326,-1.695,15.1380005,-3.0289502,15.168286,-0.5891875,-0.6425375,0.2949375,-6.8889993,109.5312327,31.200000762939453,6.840019,2.532,181.88385
1776330083336,6.306,12.53205,-8.346001,16.092875,-0.5775,0.013062499,-0.295625,-6.8889993,109.5312327,31.200000762939453,6.840019,2.532,181.88385
1776330083349,0.58905005,3.8239503,14.99505,15.607502,0.413325,0.0842875,0.08965,-6.8889993,109.5312327,31.200000762939453,6.840019,2.532,181.88385
1776330083356,-10.39395,13.79205,11.056951,19.526592,-0.62755,-0.40301248,0.669625,-6.8889993,109.5312327,31.200000762939453,6.840019,2.532,181.88385
1776330083367,1.7839501,1.7689501,11.829,13.579595,0.951775,-0.4797375,0.2173875,-6.8889993,109.5312327,31.200000762939453,6.840019,2.532,181.88385
1776330083376,0.9289501,16.56105,-5.3239503,16.652365,-0.0474375,-0.6180625,0.38334998,-6.8889993,109.5312327,31.200000762939453,6.840019,2.532,181.88385
1776330083386,8.7630005,5.00895,-8.63805,13.958607,0.2866875,0.1205875,-0.2998875,-6.8889993,109.5312327,31.200000762939453,6.840019,2.532,181.88385
1776330083402,-8.54895,20.41905,7.4170504,21.468506,-0.4008125,0.1258125,-0.17215,-6.8889993,109.5312327,31.200000762939453,6.840019,2.532,181.88385
1776330083407,10.354051,1.9219501,8.442,15.091261,-0.4008125,0.1258125,-0.17215,-6.8889993,109.5312327,31.200000762939453,6.840019,2.532,181.88385
1776330083417,-8.2879505,12.93,16.221,20.888824,0.852775,-0.049775,0.05775,-6.8889993,109.5312327,31.200000762939453,6.840019,2.532,181.88385
1776330083428,1.14195,9.082951,-11.989051,16.245346,0.1461625,-0.52442497,0.5248375,-6.8889993,109.5312327,31.200000762939453,6.840019,2.532,181.88385
1776330083440,4.8619504,12.405001,-13.656001,18.512285,0.1461625,-0.52442497,0.5248375,-6.8889993,109.5312327,31.200000762939453,6.840019,2.532,181.88385
1776330083447,8.839951,5.9050503,-3.2209501,12.588901,0.0429,0.7750875,-0.4478375,-6.8889993,109.5312327,31.200000762939453,6.840019,2.532,181.88385
1776330083457,-3.2440503,0.010950001,21.34905,19.793076,0.5240125,-0.3839,0.012925,-6.8889993,109.5312327,31.200000762939453,6.840019,2.532,181.88385
1776330083470,-13.665001,22.354052,-0.21000001,24.919226,-0.6307125,0.0694375,0.4301,-6.8889993,109.5312327,31.200000762939453,6.840019,2.532,181.88385
1776330083477,7.7569504,0.17895001,11.577001,16.133137,0.623975,0.1120625,-0.04235,-6.8889993,109.5312327,31.200000762939453,6.840019,2.532,181.88385
1776330083487,0.99600005,18.699001,2.8189502,18.37583,-0.570075,-0.4041125,0.3546125,-6.8889993,109.5312327,31.200000762939453,6.840019,2.532,181.88385
1776330083500,4.7920504,8.08005,-7.5370502,13.310371,0.5016,0.28765,-0.2233,-6.8889993,109.5312327,31.200000762939453,6.840019,2.532,181.88385
1776330083507,-5.769,20.917051,-9.75405,21.69377,-0.551925,-0.30621248,0.4706625,-6.8889993,109.5312327,31.200000762939453,6.840019,2.532,181.88385
1776330083519,12.576,-3.73095,7.3810506,16.380167,-0.3837625,0.54202497,0.13213749,-6.8889993,109.5312327,31.200000762939453,6.840019,2.532,181.88385
1776330083528,-4.67205,8.23995,12.898951,16.078728,-0.145475,0.0961125,0.3768875,-6.8889993,109.5312327,31.200000762939453,6.840019,2.532,181.88385
1776330083538,-9.306001,10.6380005,1.40295,14.578477,0.168575,0.064075,0.0055,-6.8889993,109.5312327,31.200000762939453,6.840019,2.532,181.88385
1776330083550,-0.27,7.63005,9.99405,12.976998,1.10715,0.0961125,0.0023375,-6.8889993,109.5312327,31.200000762939453,6.840019,2.532,181.88385
1776330083559,9.814951,19.834951,-9.4789505,21.855457,-0.5445,-0.1167375,0.489775,-6.8889993,109.5312327,31.200000762939453,6.840019,2.532,181.88385
1776330083569,10.35795,8.997001,-2.5090501,15.528969,0.3675375,0.90915,-0.4318875,-6.8889993,109.5312327,31.200000762939453,6.840019,2.532,181.88385
1776330083578,-6.0469503,18.775951,-4.02105,19.210865,-0.00275,0.1662375,0.373725,-6.8889993,109.5312327,31.200000762939453,6.840019,2.532,181.88385
1776330083588,0.651,1.5490501,1.64505,5.7233725,-0.6125625,0.4195125,-0.3881625,-6.8889993,109.5312327,31.200000762939453,6.840019,2.532,181.88385
1776330083607,-6.31995,6.9880505,16.41,16.282711,-0.20927499,0.2589125,0.02145,-6.8889993,109.5312327,31.200000762939453,6.840019,2.532,181.88385
1776330083611,6.25605,-5.95905,7.3450503,12.328634,-0.110275,0.13653749,-0.2935625,-6.8889993,109.5312327,31.200000762939453,6.840019,2.532,181.88385
1776330083625,-12.882001,18.50295,4.18095,20.809736,1.1050875,-0.4169,0.2492875,-6.8889993,109.5312327,31.200000762939453,6.840019,2.532,181.88385
1776330083638,13.893001,12.592051,-24.165,28.630997,-0.0188375,0.0779625,-0.2094125,-6.8889993,109.5312327,31.200000762939453,6.840019,2.532,181.88385
1776330083638,11.898001,13.569,-9.093,21.892591,-0.0188375,0.0779625,-0.2094125,-6.8889993,109.5312327,31.200000762939453,6.840019,2.532,181.88385
1776330083646,0.07395,13.89,-4.7179503,16.114183,-1.05105,0.6846125,-0.4404125,-6.8889993,109.5312327,31.200000762939453,6.840019,2.532,181.88385
1776330083656,-13.888051,3.4669502,24.94395,26.230291,-0.258225,0.3823875,-0.215875,-6.8889993,109.5312327,31.200000762939453,6.840019,2.532,181.88385
1776330083669,-3.3930001,5.6179504,17.05005,19.861734,-0.224125,-0.56485,0.4461875,-6.8889993,109.5312327,31.200000762939453,6.840019,2.532,181.88385
1776330083677,2.7589502,1.5270001,17.50695,18.203283,0.22275,-0.14025,-0.3977875,-6.8889993,109.5312327,31.200000762939453,6.840019,2.532,181.88385
1776330083687,-4.26,17.86305,-3.5460002,18.60323,-0.2721125,-0.3966875,0.455675,-6.8889993,109.5312327,31.200000762939453,6.840019,2.532,181.88385
1776330083698,8.971951,10.70505,-15.730051,20.549736,0.0961125,0.28765,-0.0785125,-6.8889993,109.5312327,31.200000762939453,6.840019,2.532,181.88385
1776330083710,3.07695,21.334051,-6.7099504,22.169987,-0.1964875,-0.3785375,0.3460875,-6.8889993,109.5312327,31.200000762939453,6.840019,2.532,181.88385
1776330083722,14.923051,1.8690001,0.43305,16.470692,-0.3933875,0.6505125,-0.71389997,-6.8889993,109.5312327,31.200000762939453,6.840019,2.532,181.88385
1776330083733,-14.299951,13.111951,20.011951,25.592337,0.2270125,0.0418,0.193875,-6.8889993,109.5312327,31.200000762939453,6.840019,2.532,181.88385
1776330083740,-6.7699504,3.726,8.401051,14.250142,-0.46365,-0.26785,0.341825,-6.8889993,109.5312327,31.200000762939453,6.840019,2.532,181.88385
1776330083751,-1.6519501,10.161,11.842951,15.403412,0.8922375,-0.1326875,0.2035,-6.8889993,109.5312327,31.200000762939453,6.840019,2.532,181.88385
1776330083761,13.053,4.26,-1.8580501,14.165253,-0.2050125,-0.0592625,-0.003025,-6.8889993,109.5312327,31.200000762939453,6.840019,2.532,181.88385
1776330083772,-5.8170004,15.741001,-2.80605,16.444588,0.94435,0.2600125,-0.3977875,-6.8889993,109.5312327,31.200000762939453,6.840019,2.532,181.88385
1776330083783,3.801,14.932051,-13.849951,19.863304,-0.68076247,-0.049775,0.8696875,-6.8889993,109.5312327,31.200000762939453,6.840019,2.532,181.88385
1776330083796,11.37405,1.6900501,6.8230505,14.669331,0.034375,0.622875,-0.523325,-6.8889993,109.5312327,31.200000762939453,6.840019,2.532,181.88385
1776330083806,-10.029,16.108051,11.362051,20.62719,-0.00605,0.25465,0.0609125,-6.8889993,109.5312327,31.200000762939453,6.840019,2.532,181.88385
1776330083817,-0.22905001,3.2350502,4.56495,8.605208,0.2952125,0.247225,-0.3658875,-6.8889993,109.5312327,31.200000762939453,6.840019,2.532,181.88385
1776330083827,-6.6670504,15.265051,10.36995,17.418324,0.2611125,-0.1445125,0.4131875,-6.8889993,109.5312327,31.200000762939453,6.840019,2.532,181.88385
1776330083841,-3.04605,18.001951,-2.5140002,18.22775,0.004675,-0.2519,0.1758625,-6.8889993,109.5312327,31.200000762939453,6.840019,2.532,181.88385
1776330083851,3.765,5.1720004,-2.95005,9.2813,-0.3018125,0.1940125,-0.0391875,-6.8889993,109.5312327,31.200000762939453,6.840019,2.532,181.88385
1776330083859,-5.5800004,12.064951,10.293,15.305906,0.176,-0.0540375,-0.2541,-6.8889993,109.5312327,31.200000762939453,6.840019,2.532,181.88385
1776330083889,10.777051,-0.44295,-5.8819504,12.88974,-0.24653749,-0.441375,0.26633748,-6.8889993,109.5312327,31.200000762939453,6.840019,2.532,181.88385
1776330083916,5.7259502,5.65395,0.03795,9.015593,-0.022,0.104637496,0.02475,-6.8889993,109.5312327,31.200000762939453,6.840019,2.532,181.88385
1776330083917,-5.86005,19.858051,1.79295,18.428825,-0.4816625,0.2057,0.2960375,-6.8889993,109.5312327,31.200000762939453,6.840019,2.532,181.88385
1776330083917,-5.55105,21.90105,-1.3090501,21.790947,-0.4816625,0.2057,0.2960375,-6.8889993,109.5312327,31.200000762939453,6.840019,2.532,181.88385
1776330083917,7.0009503,1.5769501,-5.62305,11.65175,-0.4816625,0.2057,0.2960375,-6.8889993,109.5312327,31.200000762939453,6.840019,2.532,181.88385
1776330083917,10.65795,-5.4529505,6.4879503,13.223873,-0.4816625,0.2057,0.2960375,-6.8889993,109.5312327,31.200000762939453,6.840019,2.532,181.88385
1776330083920,-7.2340503,14.127001,14.758051,19.982895,-0.193325,0.3334375,-0.451,-6.8889993,109.5312327,31.200000762939453,6.840019,2.532,181.88385
1776330083926,-7.8480005,21.489,1.6570501,22.34632,0.4802875,-0.0603625,-0.3180375,-6.8889993,109.5312327,31.200000762939453,6.840019,2.532,181.88385
1776330083946,9.166051,8.961,-9.44505,17.20724,0.511225,0.132275,0.210925,-6.8889993,109.5312327,31.200000762939453,6.840019,2.532,181.88385
1776330083946,8.418,-2.26605,0.86205006,10.449596,0.511225,0.132275,0.210925,-6.8889993,109.5312327,31.200000762939453,6.840019,2.532,181.88385
1776330083946,-7.038,5.6800504,11.383051,13.720782,0.511225,0.132275,0.210925,-6.8889993,109.5312327,31.200000762939453,6.840019,2.532,181.88385
1776330083946,-10.362,25.621052,3.0889502,24.991507,0.511225,0.132275,0.210925,-6.8889993,109.5312327,31.200000762939453,6.840019,2.532,181.88385
1776330083956,3.10905,18.859951,-15.996,24.937988,-0.7753625,0.4068625,0.0512875,-6.8889993,109.5312327,31.200000762939453,6.840019,2.532,181.88385
1776330083957,19.768051,-1.9950001,-12.418051,23.73158,-0.7753625,0.4068625,0.0512875,-6.8889993,109.5312327,31.200000762939453,6.840019,2.532,181.88385
1776330083970,8.775001,-3.1020002,11.124001,16.349527,0.25795,-0.23485,0.28435,-6.8889993,109.5312327,31.200000762939453,6.840019,2.532,181.88385
1776330083970,-18.06495,18.76905,22.01505,30.555443,0.25795,-0.23485,0.28435,-6.8889993,109.5312327,31.200000762939453,6.840019,2.532,181.88385
1776330083970,-16.30005,22.897951,7.3810506,29.359146,0.25795,-0.23485,0.28435,-6.8889993,109.5312327,31.200000762939453,6.840019,2.532,181.88385
1776330083975,4.86705,5.3760004,-7.48605,14.209906,0.25795,-0.23485,0.28435,-6.8889993,109.5312327,31.200000762939453,6.840019,2.532,181.88385
1776330083980,11.002951,-3.38895,5.31405,12.986191,-0.62535,-0.253,0.2567125,-6.8889993,109.5312327,31.200000762939453,6.840019,2.532,181.88385
1776330083987,-4.5420003,6.2140503,15.7879505,16.648655,-0.307175,0.2600125,-0.083875,-6.8889993,109.5312327,31.200000762939453,6.840019,2.532,181.88385
1776330083997,-5.71605,20.730001,2.8540502,20.683496,0.5952375,0.0204875,-0.279675,-6.8889993,109.5312327,31.200000762939453,6.840019,2.532,181.88385
1776330084004,8.586,11.955001,-12.588,19.630682,-0.1794375,-0.0603625,0.16733749,-6.8889993,109.5312327,31.200000762939453,6.840019,2.532,181.88385
1776330084006,12.066001,-4.8829503,-13.965001,19.198654,-0.64033747,0.058849998,-0.130625,-6.8889993,109.5312327,31.200000762939453,6.840019,2.532,181.88385
1776330084009,0.33795002,5.58195,10.600051,13.4275055,-0.64033747,0.058849998,-0.130625,-6.8889993,109.5312327,31.200000762939453,6.840019,2.532,181.88385
1776330084019,-19.657051,23.13495,9.87705,28.225203,0.3058,-0.2424125,-0.089237496,-6.8889993,109.5312327,31.200000762939453,6.840019,2.532,181.88385
1776330084019,-1.5270001,14.470051,-7.3450503,18.684399,-0.472175,-0.671275,0.6015625,-6.8889993,109.5312327,31.200000762939453,6.840019,2.532,181.88385
1776330084032,17.875952,-2.57505,-6.73395,19.1569,0.412225,0.61861247,-0.408375,-6.8889993,109.5312327,31.200000762939453,6.840019,2.532,181.88385
1776330084032,6.7849503,-3.5520003,5.71395,11.475525,0.412225,0.61861247,-0.408375,-6.8889993,109.5312327,31.200000762939453,6.840019,2.532,181.88385
1776330084035,-5.42595,11.8279505,12.592951,16.782038,0.412225,0.61861247,-0.408375,-6.8889993,109.5312327,31.200000762939453,6.840019,2.532,181.88385
1776330084037,-8.614051,21.90105,-2.98095,22.334188,0.4739625,-0.0455125,-0.319,-6.8889993,109.5312327,31.200000762939453,6.840019,2.532,181.88385
1776330084042,0.321,8.700001,-9.357,14.691404,-0.517825,-0.3306875,0.194975,-6.8889993,109.5312327,31.200000762939453,6.840019,2.532,181.88385
1776330084052,8.907001,-3.8899503,5.4960003,11.870825,0.315425,-0.4274875,-0.17105,-6.8889993,109.5312327,31.200000762939453,6.840019,2.532,181.88385
1776330084053,-3.561,9.30105,17.470951,18.46241,0.315425,-0.4274875,-0.17105,-6.8889993,109.5312327,31.200000762939453,6.840019,2.532,181.88385
1776330084057,-10.410001,19.177952,3.93705,21.43125,-0.158125,-0.1423125,0.3779875,-6.8889993,109.5312327,31.200000762939453,6.840019,2.532,181.88385
1776330084063,11.13405,7.9410005,-3.4939501,15.5782795,-0.158125,-0.1423125,0.3779875,-6.8889993,109.5312327,31.200000762939453,6.840019,2.532,181.88385
1776330084069,7.8510003,-1.8540001,6.5929503,11.450356,-0.158125,-0.1423125,0.3779875,-6.8889993,109.5312327,31.200000762939453,6.840019,2.532,181.88385
1776330084072,-11.0449505,8.632951,12.64095,17.391062,0.1643125,0.359975,-0.4530625,-6.8889993,109.5312327,31.200000762939453,6.840019,2.532,181.88385
1776330084077,-6.80595,22.44795,8.04705,23.317348,0.4824875,-0.2327875,-0.0242,-6.8889993,109.5312327,31.200000762939453,6.840019,2.532,181.88385
1776330084085,-0.80100006,18.048,-5.9680505,19.884287,0.15675,-0.2635875,0.128975,-6.8889993,109.5312327,31.200000762939453,6.840019,2.532,181.88385
1776330084088,14.137951,-1.899,-6.4230003,16.492264,-0.4976125,-0.07315,0.44288749,-6.8889993,109.5312327,31.200000762939453,6.840019,2.532,181.88385
1776330084093,15.156001,-4.0999503,5.8120503,16.692038,0.495275,0.605825,-0.72985,-6.8889993,109.5312327,31.200000762939453,6.840019,2.532,181.88385
1776330084104,-10.936951,19.245,13.852051,24.228464,0.495275,0.605825,-0.72985,-6.8889993,109.5312327,31.200000762939453,6.840019,2.532,181.88385
1776330084104,-14.676001,21.69495,-3.1219501,25.948147,0.61654997,0.13859999,-0.087037496,-6.8889993,109.5312327,31.200000762939453,6.840019,2.532,181.88385
1776330084108,12.865951,7.14795,-11.233951,20.002111,-0.5456,-0.7052375,0.4120875,-6.8889993,109.5312327,31.200000762939453,6.840019,2.532,181.88385
1776330084119,10.063951,-3.7189503,0.83295006,12.609534,-0.568975,0.2567125,-0.1211375,-6.8889993,109.5312327,31.200000762939453,6.840019,2.532,181.88385
1776330084119,-8.7310505,7.4020505,13.045051,16.405882,0.1205875,0.58134997,-0.41593748,-6.8889993,109.5312327,31.200000762939453,6.840019,2.532,181.88385
1776330084123,-7.8210006,20.557951,7.5030003,21.873087,-0.0644875,-0.344575,0.0694375,-6.8889993,109.5312327,31.200000762939453,6.840019,2.532,181.88385
1776330084129,-0.73905003,13.732051,-5.175,16.12934,-0.4125,0.2567125,0.309925,-6.8889993,109.5312327,31.200000762939453,6.840019,2.532,181.88385
1776330084139,9.54195,-3.86295,-1.00995,11.5007925,-0.4125,0.2567125,0.309925,-6.8889993,109.5312327,31.200000762939453,6.840019,2.532,181.88385
1776330084140,5.6929502,-0.22500001,13.804951,14.247697,0.7847125,0.1502875,-0.122099996,-6.8889993,109.5312327,31.200000762939453,6.840019,2.532,181.88385
1776330084141,-9.10305,22.288952,13.558051,24.954506,0.7847125,0.1502875,-0.122099996,-6.8889993,109.5312327,31.200000762939453,6.840019,2.532,181.88385
1776330084146,-3.5770502,14.58705,-7.6110005,18.46098,-0.1464375,-0.47753748,0.295075,-6.8889993,109.5312327,31.200000762939453,6.840019,2.532,181.88385
1776330084157,12.432,-2.02395,-9.193951,16.167572,-0.6199875,0.2344375,-0.1753125,-6.8889993,109.5312327,31.200000762939453,6.840019,2.532,181.88385
1776330084161,-0.41595003,2.3719501,9.891001,11.377462,0.6059625,-0.49885,-0.0050875,-6.8889993,109.5312327,31.200000762939453,6.840019,2.532,181.88385
1776330084161,-19.16595,20.48595,12.67605,26.903152,0.6059625,-0.49885,-0.0050875,-6.8889993,109.5312327,31.200000762939453,6.840019,2.532,181.88385
1776330084171,-2.7970502,22.00695,-7.4809504,24.109756,-0.1241625,-0.5424375,0.522775,-6.8889993,109.5312327,31.200000762939453,6.840019,2.532,181.88385
1776330084171,19.323002,2.8510501,-6.4900503,21.287724,-0.944625,0.065175,0.2470875,-6.8889993,109.5312327,31.200000762939453,6.840019,2.532,181.88385
1776330084176,11.292001,-8.89305,14.22105,20.433258,-0.142175,0.5377625,-0.2668875,-6.8889993,109.5312327,31.200000762939453,6.840019,2.532,181.88385
1776330084181,-3.6130502,6.8970003,24.47895,24.636562,-0.142175,0.5377625,-0.2668875,-6.8889993,109.5312327,31.200000762939453,6.840019,2.532,181.88385
1776330084186,-14.032051,28.963951,4.21005,30.893856,0.80808747,0.1056,-0.654225,-6.8889993,109.5312327,31.200000762939453,6.840019,2.532,181.88385
1776330084191,-6.42495,15.607051,-15.136051,24.315323,-0.46461248,-0.0785125,0.48014998,-6.8889993,109.5312327,31.200000762939453,6.840019,2.532,181.88385
1776330084200,9.132,-0.91695005,-1.005,12.24929,-0.5253875,-0.177375,0.0182875,-6.8889993,109.5312327,31.200000762939453,6.840019,2.532,181.88385
1776330084206,0.97905004,5.15805,11.425951,12.509405,0.5143875,0.25575,-0.15619999,-6.8889993,109.5312327,31.200000762939453,6.840019,2.532,181.88385
1776330084209,-5.30205,19.27395,-0.65595,18.502424,0.802725,-0.4371125,0.179025,-6.8889993,109.5312327,31.200000762939453,6.840019,2.532,181.88385
1776330084213,13.860001,16.855051,-15.16005,24.957308,-0.3933875,-0.253,0.2545125,-6.8889993,109.5312327,31.200000762939453,6.840019,2.532,181.88385
1776330084217,15.25905,0.31005,-11.244,20.156944,-0.3933875,-0.253,0.2545125,-6.8889993,109.5312327,31.200000762939453,6.840019,2.532,181.88385
1776330084230,0.25095,-0.57495004,10.62195,12.5437565,0.5399625,-0.0677875,-0.476575,-6.8889993,109.5312327,31.200000762939453,6.840019,2.532,181.88385
1776330084230,-14.260951,15.055951,19.71795,25.40125,0.5399625,-0.0677875,-0.476575,-6.8889993,109.5312327,31.200000762939453,6.840019,2.532,181.88385
1776330084235,-14.002951,22.845001,-0.96495,26.530216,0.282425,-0.63085,0.2556125,-6.8889993,109.5312327,31.200000762939453,6.840019,2.532,181.88385
1776330084239,10.378051,3.8839502,-16.24995,21.040842,0.282425,-0.63085,0.2556125,-6.8889993,109.5312327,31.200000762939453,6.840019,2.532,181.88385
1776330084242,20.736,-5.7000003,-2.3419502,21.51401,-0.4115375,0.0429,0.5526125,-6.8889993,109.5312327,31.200000762939453,6.840019,2.532,181.88385
1776330084249,-4.26,8.872951,11.332951,16.311136,-0.4401375,0.048125,-0.3796375,-6.8889993,109.5312327,31.200000762939453,6.840019,2.532,181.88385
1776330084251,-13.806001,23.307001,9.622951,26.260288,0.3174875,0.4376625,-0.5776375,-6.8889993,109.5312327,31.200000762939453,6.840019,2.532,181.88385
1776330084256,1.6999501,13.894951,3.8530502,16.86737,0.29947498,0.0226875,-0.081675,-6.8889993,109.5312327,31.200000762939453,6.840019,2.532,181.88385
1776330084263,2.70105,-3.9109502,8.500051,11.164426,-0.7616125,-0.2541,0.2151875,-6.8889993,109.5312327,31.200000762939453,6.840019,2.532,181.88385
1776330084273,-0.52395004,2.334,19.464,17.921238,-0.1859,0.25355,-0.091299996,-6.8889993,109.5312327,31.200000762939453,6.840019,2.532,181.88385
1776330084273,-9.474,21.837002,7.9729505,23.666945,0.5707625,0.293975,-0.19139999,-6.8889993,109.5312327,31.200000762939453,6.840019,2.532,181.88385
1776330084277,-4.2379503,24.189001,-11.13405,26.30426,1.049675,-0.180675,-0.21367499,-6.8889993,109.5312327,31.200000762939453,6.840019,2.532,181.88385
1776330084282,13.28295,2.1660001,-11.649,19.500572,-0.061325,-0.425425,0.48014998,-6.8889993,109.5312327,31.200000762939453,6.840019,2.532,181.88385
1776330084288,8.2240505,-1.5660001,11.086051,15.013721,-0.586025,0.2057,0.229075,-6.8889993,109.5312327,31.200000762939453,6.840019,2.532,181.88385
1776330084291,-11.09805,18.70605,17.517,25.344501,-0.16995,0.3557125,-0.458425,-6.8889993,109.5312327,31.200000762939453,6.840019,2.532,181.88385
1776330084309,-1.692,20.26305,-9.77595,23.118137,1.00705,-0.046475,-0.0444125,-6.8889993,109.5312327,31.200000762939453,6.840019,2.532,181.88385
1776330084309,17.15295,6.67395,-19.684052,26.18251,-0.7414,-0.10615,-0.064625,-6.8889993,109.5312327,31.200000762939453,6.840019,2.532,181.88385
1776330084312,7.2259502,-3.6790502,-2.1360002,11.9446945,-0.7414,-0.10615,-0.064625,-6.8889993,109.5312327,31.200000762939453,6.840019,2.532,181.88385
1776330084318,-10.707001,7.9410005,14.845951,18.350925,-0.324225,0.87395,-0.359425,-6.8889993,109.5312327,31.200000762939453,6.840019,2.532,181.88385
1776330084322,-11.890051,24.32295,4.8780003,25.677807,0.4037,-0.0507375,-0.451,-6.8889993,109.5312327,31.200000762939453,6.840019,2.532,181.88385
1776330084325,3.5659502,12.978001,-13.716001,20.508747,0.4398625,-0.39985,0.0119624995,-6.8889993,109.5312327,31.200000762939453,6.840019,2.532,181.88385
1776330084344,17.39295,-7.9849505,-3.4980001,19.66602,1.43385,0.0056375,-0.1573,-6.8889993,109.5312327,31.200000762939453,6.840019,2.532,181.88385
1776330084344,2.6940002,-1.5640501,22.906052,22.426725,1.43385,0.0056375,-0.1573,-6.8889993,109.5312327,31.200000762939453,6.840019,2.532,181.88385
1776330084344,-13.833,23.42505,9.979951,27.667192,1.43385,0.0056375,-0.1573,-6.8889993,109.5312327,31.200000762939453,6.840019,2.532,181.88385
1776330084346,0.33495003,19.74105,-27.643051,32.709423,1.43385,0.0056375,-0.1573,-6.8889993,109.5312327,31.200000762939453,6.840019,2.532,181.88385
1776330084352,11.27295,4.3219504,-14.734051,21.780802,-0.23375,-0.3796375,0.2055625,-6.8889993,109.5312327,31.200000762939453,6.840019,2.532,181.88385
1776330084357,-5.5200005,-0.29205,20.68095,21.481718,-1.404425,0.0226875,-0.229625,-6.8889993,109.5312327,31.200000762939453,6.840019,2.532,181.88385
1776330084371,-10.330951,11.58405,21.65805,25.612854,0.8602,-0.7701375,-0.1285625,-6.8889993,109.5312327,31.200000762939453,6.840019,2.532,181.88385
1776330084371,4.85505,20.866951,-10.759951,24.302189,0.8602,-0.7701375,-0.1285625,-6.8889993,109.5312327,31.200000762939453,6.840019,2.532,181.88385
1776330084375,11.509951,4.9180503,-15.226951,20.629292,-0.6754,0.6835125,-0.37125,-6.8889993,109.5312327,31.200000762939453,6.840019,2.532,181.88385
1776330084376,3.3619502,-2.5819502,12.34395,14.567078,-0.6754,0.6835125,-0.37125,-6.8889993,109.5312327,31.200000762939453,6.840019,2.532,181.88385
1776330084377,-12.360001,11.734951,29.784002,30.365955,0.559075,-0.2998875,-0.47753748,-6.8889993,109.5312327,31.200000762939453,6.840019,2.532,181.88385
1776330084383,-13.354051,21.44205,1.79595,26.332592,0.559075,-0.2998875,-0.47753748,-6.8889993,109.5312327,31.200000762939453,6.840019,2.532,181.88385
1776330084388,9.754951,5.7780004,-10.38405,17.566055,0.606925,-0.26895,0.3535125,-6.8889993,109.5312327,31.200000762939453,6.840019,2.532,181.88385
1776330084392,10.974001,-5.037,7.80495,15.015346,-0.7095,-0.081675,0.3034625,-6.8889993,109.5312327,31.200000762939453,6.840019,2.532,181.88385
1776330084398,-6.3820505,8.439,18.657001,20.161736,-0.454025,0.1194875,-0.30621248,-6.8889993,109.5312327,31.200000762939453,6.840019,2.532,181.88385
1776330084403,-6.9349504,25.486952,-5.62995,25.637896,1.122,0.3642375,-0.179575,-6.8889993,109.5312327,31.200000762939453,6.840019,2.532,181.88385
1776330084408,7.59,21.484951,-23.62605,31.386616,0.950675,-0.5446375,-0.0391875,-6.8889993,109.5312327,31.200000762939453,6.840019,2.532,181.88385
1776330084415,12.03705,0.11895001,-3.048,16.211348,-0.8936125,-0.2838,0.2673,-6.8889993,109.5312327,31.200000762939453,6.840019,2.532,181.88385
1776330084426,3.1680002,-2.77095,18.786001,18.643635,-0.9744625,0.3664375,-0.0125124995,-6.8889993,109.5312327,31.200000762939453,6.840019,2.532,181.88385
1776330084430,-6.11805,18.337952,13.00905,22.369696,0.0631125,0.3642375,-0.3966875,-6.8889993,109.5312327,31.200000762939453,6.840019,2.532,181.88385
1776330084430,-5.77395,21.820051,-13.423051,25.482607,0.0578875,-0.3168,0.1970375,-6.8889993,109.5312327,31.200000762939453,6.840019,2.532,181.88385
1776330084439,6.4230003,4.7700005,-10.80105,15.84962,-0.894575,0.38445,-0.1018875,-6.8889993,109.5312327,31.200000762939453,6.840019,2.532,181.88385
1776330084440,-5.1199503,0.279,16.570951,17.046827,-0.894575,0.38445,-0.1018875,-6.8889993,109.5312327,31.200000762939453,6.840019,2.532,181.88385
1776330084446,-14.604001,14.197051,26.260952,29.996227,0.9933,-0.113575,0.311025,-6.8889993,109.5312327,31.200000762939453,6.840019,2.532,181.88385
1776330084453,3.7189503,11.823001,-8.24505,17.908096,0.9933,-0.113575,0.311025,-6.8889993,109.5312327,31.200000762939453,6.840019,2.532,181.88385
1776330084458,22.984951,4.794,-20.02695,28.270002,0.3834875,-0.9703375,0.406725,-6.8889993,109.5312327,31.200000762939453,6.840019,2.532,181.88385
1776330084464,11.047951,-5.1540003,-0.9979501,15.439438,-0.6221875,0.1035375,-0.0477125,-6.8889993,109.5312327,31.200000762939453,6.840019,2.532,181.88385
1776330084471,-17.341051,8.652,30.165,31.770945,0.0323125,0.31845,-0.79254997,-6.8889993,109.5312327,31.200000762939453,6.840019,2.532,181.88385
1776330084474,-27.654001,26.44695,25.612051,43.19037,0.0323125,0.31845,-0.79254997,-6.8889993,109.5312327,31.200000762939453,6.840019,2.532,181.88385
1776330084479,-2.835,11.383051,-6.6840005,19.439169,0.689975,-0.47753748,0.0353375,-6.8889993,109.5312327,31.200000762939453,6.840019,2.532,181.88385
1776330084484,20.13495,-5.19,-3.6690001,20.77928,-0.1252625,-0.5583875,0.8633625,-6.8889993,109.5312327,31.200000762939453,6.840019,2.532,181.88385
1776330084486,7.971,3.1050003,13.644001,17.039003,-0.2209625,0.1120625,0.3003,-6.8889993,109.5312327,31.200000762939453,6.840019,2.532,181.88385
1776330084494,-7.0090504,26.313002,3.28095,25.34977,0.54945,0.1832875,-0.40315,-6.8889993,109.5312327,31.200000762939453,6.840019,2.532,181.88385
1776330084503,3.8530502,19.18305,-20.788052,27.908216,-0.489225,-0.097625,0.2300375,-6.8889993,109.5312327,31.200000762939453,6.840019,2.532,181.88385
1776330084505,9.024,3.6349502,-3.831,13.946217,-1.1233749,0.22275,-0.20405,-6.8889993,109.5312327,31.200000762939453,6.840019,2.532,181.88385
1776330084506,-7.9530005,1.5079501,26.635052,25.059584,-1.1233749,0.22275,-0.20405,-6.8889993,109.5312327,31.200000762939453,6.840019,2.532,181.88385
1776330084514,-10.306951,18.091051,19.28895,27.718153,1.277375,-0.79145,0.0097624995,-6.8889993,109.5312327,31.200000762939453,6.840019,2.532,181.88385
1776330084520,7.4749503,20.931002,-19.80405,29.35868,1.277375,-0.79145,0.0097624995,-6.8889993,109.5312327,31.200000762939453,6.840019,2.532,181.88385
1776330084524,16.72005,2.9620502,-20.347052,27.07304,0.2674375,-0.508475,0.4035625,-6.8889993,109.5312327,31.200000762939453,6.840019,2.532,181.88385
1776330084531,1.32,-0.735,14.691001,17.229397,-0.9053,0.2567125,-0.10615,-6.8889993,109.5312327,31.200000762939453,6.840019,2.532,181.88385
1776330084535,-17.535002,12.991951,29.121002,32.558624,0.754875,-0.4169,-0.2817375,-6.8889993,109.5312327,31.200000762939453,6.840019,2.532,181.88385
1776330084535,-6.9259505,21.295052,-3.86295,24.690752,0.754875,-0.4169,-0.2817375,-6.8889993,109.5312327,31.200000762939453,6.840019,2.532,181.88385
1776330084539,16.854,4.7719502,-19.417952,25.859118,0.7357625,-0.654225,0.4653,-6.8889993,109.5312327,31.200000762939453,6.840019,2.532,181.88385
1776330084544,12.492001,-5.9710503,-0.025950002,16.248405,-0.56155,0.0204875,0.25355,-6.8889993,109.5312327,31.200000762939453,6.840019,2.532,181.88385
1776330084554,-6.5179505,11.241,19.705952,22.133211,0.80602497,0.3738625,-0.4285875,-6.8889993,109.5312327,31.200000762939453,6.840019,2.532,181.88385
1776330084554,-15.301051,24.295952,-1.31895,27.42097,0.80602497,0.3738625,-0.4285875,-6.8889993,109.5312327,31.200000762939453,6.840019,2.532,181.88385
1776330084560,4.2990003,14.44095,-15.648001,22.862478,0.73149997,-0.5201625,-0.0924,-6.8889993,109.5312327,31.200000762939453,6.840019,2.532,181.88385
1776330084570,13.30395,-5.4030004,3.4339502,16.383799,-0.4742375,0.476025,-0.0688875,-6.8889993,109.5312327,31.200000762939453,6.840019,2.532,181.88385
1776330084570,-2.502,2.1040502,21.54795,20.71238,-0.4742375,0.476025,-0.0688875,-6.8889993,109.5312327,31.200000762939453,6.840019,2.532,181.88385
1776330084575,-9.61305,22.66995,10.71,25.624249,0.3408625,0.1035375,-0.3542,-6.8889993,109.5312327,31.200000762939453,6.840019,2.532,181.88385
1776330084579,1.2,18.642,-13.440001,23.535242,1.114575,-0.1274625,-0.07315,-6.8889993,109.5312327,31.200000762939453,6.840019,2.532,181.88385
1776330084588,6.9979506,1.8049501,-3.0360003,10.978071,-0.3348125,-0.3125375,0.307725,-6.8889993,109.5312327,31.200000762939453,6.840019,2.532,181.88385
1776330084591,-3.6870003,0.126,18.043951,16.929392,-0.5413375,0.3301375,-0.0466125,-6.8889993,109.5312327,31.200000762939453,6.840019,2.532,181.88385
1776330084595,-9.73995,20.39505,13.123951,24.294254,0.101475,0.1929125,-0.180675,-6.8889993,109.5312327,31.200000762939453,6.840019,2.532,181.88385
1776330084603,1.401,18.52005,-15.370951,24.145676,1.2454749,-0.2965875,0.065175,-6.8889993,109.5312327,31.200000762939453,6.840019,2.532,181.88385
1776330084606,18.78405,2.25705,-14.925001,24.107153,-0.8052,0.073699996,0.0598125,-6.8889993,109.5312327,31.200000762939453,6.840019,2.532,181.88385
1776330084610,8.622001,-3.3049502,12.05595,16.970045,-0.8052,0.073699996,0.0598125,-6.8889993,109.5312327,31.200000762939453,6.840019,2.532,181.88385
1776330084615,-16.525051,15.5140505,22.410002,28.893452,0.9634625,-0.1678875,-0.3796375,-6.8889993,109.5312327,31.200000762939453,6.840019,2.532,181.88385
1776330084629,-10.210951,23.736002,-2.7610502,26.567682,0.9634625,-0.1678875,-0.3796375,-6.8889993,109.5312327,31.200000762939453,6.840019,2.532,181.88385
1776330084630,10.449,9.316051,-15.976951,22.307339,-0.5061375,0.0748,0.1651375,-6.8889993,109.5312327,31.200000762939453,6.840019,2.532,181.88385
1776330084633,11.92905,-3.9810002,-5.00505,15.289613,0.2409,0.39833748,-0.228525,-6.8889993,109.5312327,31.200000762939453,6.840019,2.532,181.88385
1776330084638,3.7050002,6.2400002,6.14295,10.664256,0.2409,0.39833748,-0.228525,-6.8889993,109.5312327,31.200000762939453,6.840019,2.532,181.88385
1776330084642,-6.9540005,25.285952,-6.8200502,23.810497,0.708125,-0.1764125,-0.4945875,-6.8889993,109.5312327,31.200000762939453,6.840019,2.532,181.88385
1776330084647,-0.17205001,14.48595,-16.567951,22.368816,-1.1532125,0.0438625,0.0672375,-6.8889993,109.5312327,31.200000762939453,6.840019,2.532,181.88385
1776330084654,8.02305,-3.10905,4.53105,12.2533655,-0.2806375,0.47808748,-0.27225,-6.8889993,109.5312327,31.200000762939453,6.840019,2.532,181.88385
1776330084658,-4.59795,4.3099504,24.652052,22.806557,-0.2806375,0.47808748,-0.27225,-6.8889993,109.5312327,31.200000762939453,6.840019,2.532,181.88385
1776330084663,-8.44905,16.747051,0.28500003,19.56918,1.0241,-0.277475,-0.097625,-6.8889993,109.5312327,31.200000762939453,6.840019,2.532,181.88385
1776330084669,11.677951,15.391951,-19.900051,26.102823,0.1695375,-0.5839625,0.2376,-6.8889993,109.5312327,31.200000762939453,6.840019,2.532,181.88385
1776330084673,6.3510003,0.79395,-4.734,11.589304,-0.895675,0.42061248,-0.1615625,-6.8889993,109.5312327,31.200000762939453,6.840019,2.532,181.88385
1776330084677,-9.667951,-0.441,19.857,19.989792,-0.6956125,0.509025,-0.247775,-6.8889993,109.5312327,31.200000762939453,6.840019,2.532,181.88385
1776330084683,-7.6200004,14.7640505,17.68005,23.407248,0.41854998,-0.1667875,-0.0859375,-6.8889993,109.5312327,31.200000762939453,6.840019,2.532,181.88385
1776330084688,-3.11505,19.782001,-11.148001,23.017149,-0.3806,-0.0592625,0.5632,-6.8889993,109.5312327,31.200000762939453,6.840019,2.532,181.88385
1776330084693,14.313001,3.795,-16.108051,22.10741,-0.9084625,0.0066,-0.1359875,-6.8889993,109.5312327,31.200000762939453,6.840019,2.532,181.88385
1776330084699,14.727,-3.24795,4.143,16.93319,-0.9084625,0.0066,-0.1359875,-6.8889993,109.5312327,31.200000762939453,6.840019,2.532,181.88385
1776330084708,-11.0140505,13.003951,17.962051,23.194473,-0.3487,-0.655325,0.3290375,-6.8889993,109.5312327,31.200000762939453,6.840019,2.532,181.88385
1776330084708,-13.725,18.889051,4.6270504,23.681274,-0.3487,-0.655325,0.3290375,-6.8889993,109.5312327,31.200000762939453,6.840019,2.532,181.88385
1776330084713,9.307051,9.222,-6.1789503,16.325102,-0.3487,-0.655325,0.3290375,-6.8889993,109.5312327,31.200000762939453,6.840019,2.532,181.88385
1776330084718,9.261001,0.26205,0.87405,10.709698,-0.4816625,0.1929125,-0.01045,-6.8889993,109.5312327,31.200000762939453,6.840019,2.532,181.88385
1776330084724,-3.0910501,9.238951,13.588951,15.518274,-0.0092124995,0.424875,-0.247775,-6.8889993,109.5312327,31.200000762939453,6.840019,2.532,181.88385
1776330084728,-7.04505,19.95705,11.42895,22.345901,-0.1549625,-0.49774998,0.0512875,-6.8889993,109.5312327,31.200000762939453,6.840019,2.532,181.88385
1776330084742,-1.2730501,13.155001,-1.60905,15.120415,-0.1549625,-0.49774998,0.0512875,-6.8889993,109.5312327,31.200000762939453,6.840019,2.532,181.88385
1776330084742,7.4410505,-1.46595,-2.7580502,9.480092,-0.1549625,-0.49774998,0.0512875,-6.8889993,109.5312327,31.200000762939453,6.840019,2.532,181.88385
1776330084744,-1.10595,8.901,11.613001,13.634849,0.41854998,-0.2646875,-0.277475,-6.8889993,109.5312327,31.200000762939453,6.840019,2.532,181.88385
1776330084748,-13.45905,26.22195,8.896951,27.357262,0.41854998,-0.2646875,-0.277475,-6.8889993,109.5312327,31.200000762939453,6.840019,2.532,181.88385
1776330084753,5.95905,9.670051,-10.542001,17.868973,0.0886875,-0.2838,0.5663625,-6.8889993,109.5312327,31.200000762939453,6.840019,2.532,181.88385
1776330084760,20.415,-4.16295,-4.24095,20.583685,-0.730675,-0.20295,0.0917125,-6.8889993,109.5312327,31.200000762939453,6.840019,2.532,181.88385
1776330084779,-2.8249502,3.96495,9.9199505,12.956884,0.5303375,0.2514875,-0.3861,-6.8889993,109.5312327,31.200000762939453,6.840019,2.532,181.88385
1776330084783,-17.779951,22.45005,12.4470005,27.572128,0.182325,-0.4499,0.16733749,-6.8889993,109.5312327,31.200000762939453,6.840019,2.532,181.88385
1776330084784,-3.6349502,20.230051,-5.256,22.48675,-0.7935125,-0.2891625,0.3460875,-6.8889993,109.5312327,31.200000762939453,6.840019,2.532,181.88385
1776330084786,11.395051,-1.69605,-6.7770004,15.190197,-0.698775,0.2748625,0.0204875,-6.8889993,109.5312327,31.200000762939453,6.840019,2.532,181.88385
1776330084790,9.460051,-9.22605,13.797001,18.321386,-0.698775,0.2748625,0.0204875,-6.8889993,109.5312327,31.200000762939453,6.840019,2.532,181.88385
1776330084800,-5.26095,10.99005,23.806051,25.058662,0.4101625,0.2748625,-0.47753748,-6.8889993,109.5312327,31.200000762939453,6.840019,2.532,181.88385
1776330084808,-12.187051,24.14805,-4.9620004,27.012081,-0.1315875,-0.195525,0.392975,-6.8889993,109.5312327,31.200000762939453,6.840019,2.532,181.88385
1776330084812,5.7840004,8.092051,-17.61,21.582367,-0.1315875,-0.195525,0.392975,-6.8889993,109.5312327,31.200000762939453,6.840019,2.532,181.88385
1776330084815,3.315,-0.12195001,10.165951,12.8712635,0.2068,0.5622375,-0.07425,-6.8889993,109.5312327,31.200000762939453,6.840019,2.532,181.88385
1776330084820,-11.392051,8.463,22.278002,23.705622,0.2068,0.5622375,-0.07425,-6.8889993,109.5312327,31.200000762939453,6.840019,2.532,181.88385
1776330084827,2.4550502,17.109001,-4.06605,18.94598,0.9890375,-0.604175,0.2300375,-6.8889993,109.5312327,31.200000762939453,6.840019,2.532,181.88385
1776330084827,17.64405,13.396951,-18.678001,26.970686,-0.077275,-0.6169625,0.2140875,-6.8889993,109.5312327,31.200000762939453,6.840019,2.532,181.88385
1776330084839,8.03505,-2.697,-2.0350502,12.367332,0.216425,0.3801875,-0.5478,-6.8889993,109.5312327,31.200000762939453,6.840019,2.532,181.88385
1776330084839,-7.6099505,3.2389503,24.747002,23.347431,0.216425,0.3801875,-0.5478,-6.8889993,109.5312327,31.200000762939453,6.840019,2.532,181.88385
1776330084844,-17.286001,23.746052,16.504051,31.622063,0.216425,0.3801875,-0.5478,-6.8889993,109.5312327,31.200000762939453,6.840019,2.532,181.88385
1776330084844,-5.15595,18.036001,-18.963001,27.663227,1.0709875,-0.26895,-0.13915,-6.8889993,109.5312327,31.200000762939453,6.840019,2.532,181.88385
1776330084848,18.601952,-0.64905006,-10.123051,22.483023,-0.115637496,-0.703175,0.635525,-6.8889993,109.5312327,31.200000762939453,6.840019,2.532,181.88385
1776330084857,5.17995,-4.452,17.196001,19.298868,-0.06985,0.2919125,-0.442475,-6.8889993,109.5312327,31.200000762939453,6.840019,2.532,181.88385
1776330084862,-8.78895,14.41695,20.412,25.052134,1.0049875,-0.00935,-0.067925,-6.8889993,109.5312327,31.200000762939453,6.840019,2.532,181.88385
1776330084865,-1.11,15.940051,-10.521001,20.315512,1.0049875,-0.00935,-0.067925,-6.8889993,109.5312327,31.200000762939453,6.840019,2.532,181.88385
1776330084866,9.37605,11.125951,-5.43795,16.489355,-0.6446,0.2971375,-0.0572,-6.8889993,109.5312327,31.200000762939453,6.840019,2.532,181.88385
1776330084875,-3.5370002,-1.9159501,9.25605,11.3717575,-0.088,0.523875,-0.04235,-6.8889993,109.5312327,31.200000762939453,6.840019,2.532,181.88385
1776330084875,-4.887,12.505951,20.44605,21.842857,-0.088,0.523875,-0.04235,-6.8889993,109.5312327,31.200000762939453,6.840019,2.532,181.88385
1776330084879,-7.0260005,22.73505,-4.5019503,23.743027,0.5729625,-0.2487375,0.2322375,-6.8889993,109.5312327,31.200000762939453,6.840019,2.532,181.88385
1776330084882,6.4900503,9.094951,-12.3,18.042307,0.5729625,-0.2487375,0.2322375,-6.8889993,109.5312327,31.200000762939453,6.840019,2.532,181.88385
1776330084887,10.63395,-0.30705002,10.02795,15.304203,-0.56581247,0.1940125,-0.20735,-6.8889993,109.5312327,31.200000762939453,6.840019,2.532,181.88385
1776330084893,-7.8310504,11.2560005,22.29195,23.99814,1.0720875,-0.0592625,-0.2030875,-6.8889993,109.5312327,31.200000762939453,6.840019,2.532,181.88385
1776330084898,-4.0729504,21.01305,-7.0339503,22.823856,1.0720875,-0.0592625,-0.2030875,-6.8889993,109.5312327,31.200000762939453,6.840019,2.532,181.88385
1776330084909,13.40505,11.9740505,-20.44305,26.341702,-0.6125625,0.57915,-0.2168375,-6.8889993,109.5312327,31.200000762939453,6.840019,2.532,181.88385
1776330084910,2.18205,3.7900503,-0.34695002,8.77798,-0.6125625,0.57915,-0.2168375,-6.8889993,109.5312327,31.200000762939453,6.840019,2.532,181.88385
1776330084912,-10.486951,6.2089505,19.545,20.18226,0.2451625,0.1343375,-0.0369875,-6.8889993,109.5312327,31.200000762939453,6.840019,2.532,181.88385
1776330084918,-7.7209506,19.612051,11.509951,23.248524,0.2451625,0.1343375,-0.0369875,-6.8889993,109.5312327,31.200000762939453,6.840019,2.532,181.88385
1776330084922,5.6929502,14.721001,-9.594001,19.42617,-0.2061125,-0.066825,0.5897375,-6.8889993,109.5312327,31.200000762939453,6.840019,2.532,181.88385
1776330084927,16.63095,-8.068951,-3.525,18.939741,-0.2061125,-0.066825,0.5897375,-6.8889993,109.5312327,31.200000762939453,6.840019,2.532,181.88385
1776330084936,4.1410503,1.5679501,20.99205,20.951126,-0.6221875,-0.0455125,-0.0924,-6.8889993,109.5312327,31.200000762939453,6.840019,2.532,181.88385
1776330084941,-16.900951,20.72805,7.2730503,26.36324,1.4870625,2.75E-4,-0.17435,-6.8889993,109.5312327,31.200000762939453,6.840019,2.532,181.88385
1776330084944,-5.2849503,22.279951,-23.514002,31.529655,1.4870625,2.75E-4,-0.17435,-6.8889993,109.5312327,31.200000762939453,6.840019,2.532,181.88385
1776330084948,6.0210004,8.832001,-10.281,18.170654,-0.1986875,-0.36685,0.2897125,-6.8889993,109.5312327,31.200000762939453,6.840019,2.532,181.88385
1776330084953,-4.5160503,0.10395,21.696001,21.363148,-1.1680624,0.032175,0.065175,-6.8889993,109.5312327,31.200000762939453,6.840019,2.532,181.88385
1776330084960,1.50195,8.286,21.45195,22.709114,-0.3507625,0.2737625,0.2481875,-6.8889993,109.5312327,31.200000762939453,6.840019,2.532,181.88385
1776330084966,12.53505,14.307001,-11.656051,22.38884,1.04225,-0.44027498,0.213125,-6.8889993,109.5312327,31.200000762939453,6.840019,2.532,181.88385
1776330084976,12.042001,10.923,-19.97895,25.084257,-0.455125,0.6909375,-0.5181,-6.8889993,109.5312327,31.200000762939453,6.840019,2.532,181.88385
1776330084976,-2.1979501,5.1120005,1.9039501,9.721815,-0.455125,0.6909375,-0.5181,-6.8889993,109.5312327,31.200000762939453,6.840019,2.532,181.88385
1776330084978,-19.80105,21.76995,22.24905,31.458101,-0.455125,0.6909375,-0.5181,-6.8889993,109.5312327,31.200000762939453,6.840019,2.532,181.88385
1776330084983,-13.7029505,19.344002,-2.02095,25.32499,0.32395,-0.212575,-0.2498375,-6.8889993,109.5312327,31.200000762939453,6.840019,2.532,181.88385
1776330084988,16.91595,3.11505,-10.465951,21.172419,0.19085,-0.6978125,0.702625,-6.8889993,109.5312327,31.200000762939453,6.840019,2.532,181.88385
1776330084996,21.286951,-7.3069506,1.2430501,22.266829,-0.5732375,-0.2987875,0.521675,-6.8889993,109.5312327,31.200000762939453,6.840019,2.532,181.88385
1776330085008,0.31395,8.09895,12.283951,16.226883,-0.30085,0.35365,-0.1860375,-6.8889993,109.5312327,31.200000762939453,6.840019,2.532,181.88385
1776330085008,-9.99405,26.629051,-2.766,26.106882,-0.30085,0.35365,-0.1860375,-6.8889993,109.5312327,31.200000762939453,6.840019,2.532,181.88385
1776330085008,-3.9390001,17.32905,-9.10305,21.1949,0.54202497,0.0364375,-0.163625,-6.8889993,109.5312327,31.200000762939453,6.840019,2.532,181.88385
1776330085014,0.105000004,0.68895006,10.36305,12.548146,-0.8435625,0.2492875,0.176825,-6.8889993,109.5312327,31.200000762939453,6.840019,2.532,181.88385
1776330085019,-2.04195,-2.28705,28.129051,25.146149,0.3430625,-0.0763125,-0.122099996,-6.8889993,109.5312327,31.200000762939453,6.840019,2.532,181.88385
1776330085029,-6.36,17.21895,13.761001,23.382336,0.2195875,-0.0572,0.4195125,-6.8889993,109.5312327,31.200000762939453,6.840019,2.532,181.88385
1776330085029,4.512,15.282001,-10.97805,20.156319,0.2195875,-0.0572,0.4195125,-6.8889993,109.5312327,31.200000762939453,6.840019,2.532,181.88385
1776330085035,12.042001,4.24305,-8.929951,16.4958,0.2195875,-0.0572,0.4195125,-6.8889993,109.5312327,31.200000762939453,6.840019,2.532,181.88385
1776330085041,-2.02095,10.41705,5.43405,12.836558,0.32065,0.3546125,-0.2211,-6.8889993,109.5312327,31.200000762939453,6.840019,2.532,181.88385
1776330085045,-8.343,21.472952,-0.46605003,21.00051,0.32065,0.3546125,-0.2211,-6.8889993,109.5312327,31.200000762939453,6.840019,2.532,181.88385
1776330085050,6.0880504,17.016,-15.466051,23.229465,0.593175,-0.40205,0.0609125,-6.8889993,109.5312327,31.200000762939453,6.840019,2.532,181.88385
1776330085060,12.82995,-0.38595003,-6.67005,16.218168,-0.7871875,0.12155,-0.146575,-6.8889993,109.5312327,31.200000762939453,6.840019,2.532,181.88385
1776330085066,1.8180001,-1.21395,13.33005,14.050121,-0.159225,0.5313,-0.30525,-6.8889993,109.5312327,31.200000762939453,6.840019,2.532,181.88385
1776330085067,-10.341001,15.840001,19.108952,24.320864,0.7123875,0.0471625,-0.3306875,-6.8889993,109.5312327,31.200000762939453,6.840019,2.532,181.88385
1776330085076,-9.93105,19.20495,-2.121,22.243786,-0.0581625,-0.66275,0.2300375,-6.8889993,109.5312327,31.200000762939453,6.840019,2.532,181.88385
1776330085079,7.4680505,5.4910502,-2.667,12.165184,-0.551925,0.0853875,0.212025,-6.8889993,109.5312327,31.200000762939453,6.840019,2.532,181.88385
1776330085084,3.1350002,-5.4700503,11.203951,12.717883,-0.551925,0.0853875,0.212025,-6.8889993,109.5312327,31.200000762939453,6.840019,2.532,181.88385
1776330085090,-5.5459504,12.4150505,21.49695,22.892689,1.002925,-0.0050875,-0.1243,-6.8889993,109.5312327,31.200000762939453,6.840019,2.532,181.88385
1776330085095,-5.6800504,18.292051,-6.6529503,20.799492,1.002925,-0.0050875,-0.1243,-6.8889993,109.5312327,31.200000762939453,6.840019,2.532,181.88385
1776330085100,6.078,11.967001,-12.1060505,18.619944,0.4580125,-0.4137375,0.1651375,-6.8889993,109.5312327,31.200000762939453,6.840019,2.532,181.88385
1776330085110,2.661,-0.33795002,6.3180003,9.215058,0.708125,-0.309375,-0.07645,-6.8889993,109.5312327,31.200000762939453,6.840019,2.532,181.88385
1776330085110,-5.17995,10.446,23.004002,22.47518,0.708125,-0.309375,-0.07645,-6.8889993,109.5312327,31.200000762939453,6.840019,2.532,181.88385
1776330085110,-2.4880502,20.527052,-5.352,21.581997,0.708125,-0.309375,-0.07645,-6.8889993,109.5312327,31.200000762939453,6.840019,2.532,181.88385
1776330085114,14.99295,10.353001,-25.177952,29.179577,-0.3922875,0.0056375,0.176825,-6.8889993,109.5312327,31.200000762939453,6.840019,2.532,181.88385
1776330085119,12.064051,1.8220501,-9.24705,18.08321,-0.3922875,0.0056375,0.176825,-6.8889993,109.5312327,31.200000762939453,6.840019,2.532,181.88385
1776330085124,-8.25,7.73505,9.964951,15.675,-0.6392375,0.41854998,-0.3328875,-6.8889993,109.5312327,31.200000762939453,6.840019,2.532,181.88385
1776330085142,-10.032001,21.942001,2.016,22.50354,-1.0894125,0.0631125,0.1406625,-6.8889993,109.5312327,31.200000762939453,6.840019,2.532,181.88385
1776330085143,5.2039504,9.35595,-12.310051,17.552046,-1.0894125,0.0631125,0.1406625,-6.8889993,109.5312327,31.200000762939453,6.840019,2.532,181.88385
1776330085147,12.294001,-8.392051,4.72305,16.003637,-0.2624875,0.4643375,-0.2976875,-6.8889993,109.5312327,31.200000762939453,6.840019,2.532,181.88385
1776330085150,-0.85695004,-3.1729503,22.018951,21.011038,-0.2624875,0.4643375,-0.2976875,-6.8889993,109.5312327,31.200000762939453,6.840019,2.532,181.88385
1776330085157,-11.971951,20.66595,10.52295,25.08116,0.886875,-0.0114124995,-0.4563625,-6.8889993,109.5312327,31.200000762939453,6.840019,2.532,181.88385
1776330085158,-9.02595,22.809002,-11.74005,26.771925,0.4398625,-0.2572625,-0.0232375,-6.8889993,109.5312327,31.200000762939453,6.840019,2.532,181.88385
1776330085162,1.9090501,3.5010002,6.7939506,11.6566,-1.21385,-0.0444125,0.38334998,-6.8889993,109.5312327,31.200000762939453,6.840019,2.532,181.88385
1776330085167,0.34500003,-6.354,28.488,25.683353,-0.7189875,0.048125,0.1566125,-6.8889993,109.5312327,31.200000762939453,6.840019,2.532,181.88385
1776330085173,1.40295,10.03905,15.7900505,20.14763,1.4807374,-0.357225,0.0523875,-6.8889993,109.5312327,31.200000762939453,6.840019,2.532,181.88385
1776330085177,5.51805,22.524,-23.362951,30.364075,-0.2497,0.1194875,0.19607499,-6.8889993,109.5312327,31.200000762939453,6.840019,2.532,181.88385
1776330085182,11.671051,15.98805,-26.112001,32.28631,-1.1341,0.557975,-0.1775125,-6.8889993,109.5312327,31.200000762939453,6.840019,2.532,181.88385
1776330085189,-0.25305,2.3170502,2.7610502,9.347925,-1.1341,0.557975,-0.1775125,-6.8889993,109.5312327,31.200000762939453,6.840019,2.532,181.88385
1776330085192,-12.937051,14.212951,29.185051,29.825462,0.8262375,-0.2998875,0.2140875,-6.8889993,109.5312327,31.200000762939453,6.840019,2.532,181.88385
1776330085197,-6.8580003,15.459001,-1.5079501,19.548302,-0.2773375,-0.7968125,0.51535,-6.8889993,109.5312327,31.200000762939453,6.840019,2.532,181.88385
1776330085203,19.00395,6.5179505,-15.636001,24.276196,-0.2773375,-0.7968125,0.51535,-6.8889993,109.5312327,31.200000762939453,6.840019,2.532,181.88385
1776330085207,11.007001,-3.9880502,5.4360003,15.181398,-0.36465,0.670725,-0.556325,-6.8889993,109.5312327,31.200000762939453,6.840019,2.532,181.88385
1776330085212,-15.021001,8.53005,33.14205,32.93518,-0.36465,0.670725,-0.556325,-6.8889993,109.5312327,31.200000762939453,6.840019,2.532,181.88385
1776330085217,-15.77805,20.409,12.946951,29.677782,0.9538375,-0.10505,-0.130625,-6.8889993,109.5312327,31.200000762939453,6.840019,2.532,181.88385
1776330085229,2.7610502,14.404951,-8.526,19.507732,-0.4455,0.212025,0.2385625,-6.8889993,109.5312327,31.200000762939453,6.840019,2.532,181.88385
1776330085230,5.91795,1.065,-0.94500005,8.771003,-0.19965,0.313225,0.1428625,-6.8889993,109.5312327,31.200000762939453,6.840019,2.532,181.88385
1776330085234,4.026,4.0350003,20.26095,18.592176,-0.19965,0.313225,0.1428625,-6.8889993,109.5312327,31.200000762939453,6.840019,2.532,181.88385
1776330085238,-4.04895,22.58205,3.456,22.279245,0.4420625,-0.07425,0.31625,-6.8889993,109.5312327,31.200000762939453,6.840019,2.532,181.88385
1776330085243,3.9559503,15.649951,-19.633951,24.790056,0.4420625,-0.07425,0.31625,-6.8889993,109.5312327,31.200000762939453,6.840019,2.532,181.88385
1776330085248,11.007001,3.4050002,-2.9329503,14.469278,-0.78815,0.0438625,0.0715,-6.8889993,109.5312327,31.200000762939453,6.840019,2.532,181.88385
1776330085257,-11.919001,8.722051,22.80705,24.631174,-0.2773375,0.891,-0.3562625,-6.8889993,109.5312327,31.200000762939453,6.840019,2.532,181.88385
1776330085263,-13.144951,21.298052,8.610001,26.100239,0.724075,-0.47753748,0.1034,-6.8889993,109.5312327,31.200000762939453,6.840019,2.532,181.88385
1776330085272,13.647,14.0460005,-19.555052,27.360413,-0.7775625,0.0545875,0.1832875,-6.8889993,109.5312327,31.200000762939453,6.840019,2.532,181.88385
1776330085276,16.861052,-1.48695,-10.03005,21.212132,-0.7775625,0.0545875,0.1832875,-6.8889993,109.5312327,31.200000762939453,6.840019,2.532,181.88385
1776330085278,-1.9440001,-3.20895,17.97195,18.929945,-0.652025,0.5025625,-0.3073125,-6.8889993,109.5312327,31.200000762939453,6.840019,2.532,181.88385
1776330085283,-8.83905,10.49205,17.431051,21.531813,0.5451875,0.25575,-0.2105125,-6.8889993,109.5312327,31.200000762939453,6.840019,2.532,181.88385
1776330085291,-4.92105,19.00605,-13.552951,23.391504,0.9549375,-0.40301248,-0.116875,-6.8889993,109.5312327,31.200000762939453,6.840019,2.532,181.88385
1776330085293,7.0080004,4.0300503,-20.163,22.056908,-0.3040125,0.0312125,0.3961375,-6.8889993,109.5312327,31.200000762939453,6.840019,2.532,181.88385
1776330085299,8.33895,-4.881,2.40405,12.376976,-0.85635,-0.032725,0.0012375,-6.8889993,109.5312327,31.200000762939453,6.840019,2.532,181.88385
1776330085305,-5.9340005,9.759001,11.78295,15.603403,0.1057375,0.2365,-0.327525,-6.8889993,109.5312327,31.200000762939453,6.840019,2.532,181.88385
1776330085308,-6.0700502,16.335001,-8.859,18.759804,-0.6285125,-0.62865,0.3609375,-6.8889993,109.5312327,31.200000762939453,6.840019,2.532,181.88385
1776330085310,14.09895,11.245951,-8.36505,19.656193,-0.6285125,-0.62865,0.3609375,-6.8889993,109.5312327,31.200000762939453,6.840019,2.532,181.88385
1776330085319,7.9440002,-1.5810001,5.51805,11.771874,-0.65835,0.588775,-0.0859375,-6.8889993,109.5312327,31.200000762939453,6.840019,2.532,181.88385
1776330085323,-4.4440503,6.6379504,21.10905,20.410358,-0.339075,0.4026,-0.3509,-6.8889993,109.5312327,31.200000762939453,6.840019,2.532,181.88385
1776330085326,-10.86795,20.59395,17.272951,27.27625,0.3185875,0.034375,-0.34347498,-6.8889993,109.5312327,31.200000762939453,6.840019,2.532,181.88385
1776330085334,-9.529051,13.870951,7.8289504,20.303787,-0.1049125,-0.129525,0.0864875,-6.8889993,109.5312327,31.200000762939453,6.840019,2.532,181.88385
1776330085346,3.2569501,0.78000003,11.653951,13.761254,0.9581,-0.2871,-0.0796125,-6.8889993,109.5312327,31.200000762939453,6.840019,2.532,181.88385
1776330085346,-0.0019500001,7.0000505,15.907051,16.655575,0.9581,-0.2871,-0.0796125,-6.8889993,109.5312327,31.200000762939453,6.840019,2.532,181.88385
1776330085346,-8.98995,22.31805,-1.4790001,22.615961,0.9581,-0.2871,-0.0796125,-6.8889993,109.5312327,31.200000762939453,6.840019,2.532,181.88385
1776330085348,11.724001,14.937,-22.489052,28.069893,0.590975,-0.262625,0.6260375,-6.8889993,109.5312327,31.200000762939453,6.840019,2.532,181.88385
1776330085355,19.215,2.463,-21.30105,28.64811,-0.56787497,-0.276375,0.1258125,-6.8889993,109.5312327,31.200000762939453,6.840019,2.532,181.88385
1776330085360,0.342,5.874,2.98095,11.006403,-0.583825,0.672925,-0.4222625,-6.8889993,109.5312327,31.200000762939453,6.840019,2.532,181.88385
1776330085366,-12.53205,16.021952,15.553051,22.685852,-0.0347875,0.4345,-0.2572625,-6.8889993,109.5312327,31.200000762939453,6.840019,2.532,181.88385
1776330085378,-2.979,15.406051,2.38995,17.23508,-0.0741125,-0.606375,0.0034375,-6.8889993,109.5312327,31.200000762939453,6.840019,2.532,181.88385
1776330085381,10.1980505,-1.3600501,-1.245,11.737734,-0.42955,0.3790875,-0.131725,-6.8889993,109.5312327,31.200000762939453,6.840019,2.532,181.88385
1776330085387,5.47695,-5.50395,14.130001,15.245854,0.3771625,0.08965,-0.5798375,-6.8889993,109.5312327,31.200000762939453,6.840019,2.532,181.88385
1776330085391,-11.967001,17.547,23.31495,28.280178,0.933625,-0.2338875,-0.0859375,-6.8889993,109.5312327,31.200000762939453,6.840019,2.532,181.88385
1776330085395,-12.135,20.127,-10.2640505,26.172646,0.933625,-0.2338875,-0.0859375,-6.8889993,109.5312327,31.200000762939453,6.840019,2.532,181.88385
1776330085401,9.537001,9.39,-11.25405,19.223785,-0.422125,-0.23595,0.3993,-6.8889993,109.5312327,31.200000762939453,6.840019,2.532,181.88385
1776330085408,2.12205,3.012,10.189951,12.513242,-0.69135,0.2099625,-0.0306625,-6.8889993,109.5312327,31.200000762939453,6.840019,2.532,181.88385
1776330085411,-6.77895,12.5130005,20.91105,22.738087,-0.0422125,0.0779625,-0.0594,-6.8889993,109.5312327,31.200000762939453,6.840019,2.532,181.88385
1776330085415,6.4090505,17.872952,-2.301,19.848606,0.7932375,-0.4552625,0.2151875,-6.8889993,109.5312327,31.200000762939453,6.840019,2.532,181.88385
1776330085425,15.417001,8.299951,-18.79305,24.518229,0.086625,-0.0763125,0.21835,-6.8889993,109.5312327,31.200000762939453,6.840019,2.532,181.88385
1776330085427,5.29995,2.5140002,-7.4119506,12.465516,-0.551925,0.7409875,-0.443575,-6.8889993,109.5312327,31.200000762939453,6.840019,2.532,181.88385
1776330085431,-12.3810005,12.934051,24.319052,26.65251,-0.551925,0.7409875,-0.443575,-6.8889993,109.5312327,31.200000762939453,6.840019,2.532,181.88385
1776330085431,-20.877,19.605001,17.54805,32.20073,-0.551925,0.7409875,-0.443575,-6.8889993,109.5312327,31.200000762939453,6.840019,2.532,181.88385
1776330085443,6.0739503,3.14805,-3.795,12.698842,-0.2369125,0.472725,-0.15413749,-6.8889993,109.5312327,31.200000762939453,6.840019,2.532,181.88385
1776330085443,20.82195,-9.36705,5.15595,21.265223,-0.2369125,0.472725,-0.15413749,-6.8889993,109.5312327,31.200000762939453,6.840019,2.532,181.88385
1776330085446,-4.43895,5.3640003,23.421001,23.800241,-0.2369125,0.472725,-0.15413749,-6.8889993,109.5312327,31.200000762939453,6.840019,2.532,181.88385
1776330085452,-17.682001,20.716051,8.136001,27.500357,0.6111875,0.3579125,-0.5765375,-6.8889993,109.5312327,31.200000762939453,6.840019,2.532,181.88385
1776330085457,2.7829502,15.741001,-5.1940503,18.94631,0.7910375,-0.4849625,-0.0594,-6.8889993,109.5312327,31.200000762939453,6.840019,2.532,181.88385
1776330085463,2.4430501,-0.156,-0.13095,5.7504826,-0.43175,-0.20295,0.3141875,-6.8889993,109.5312327,31.200000762939453,6.840019,2.532,181.88385
1776330085466,3.9880502,0.52305,7.6060505,8.033358,0.5069625,-0.154,0.0119624995,-6.8889993,109.5312327,31.200000762939453,6.840019,2.532,181.88385
1776330085476,5.3980503,22.765951,-6.1399503,20.958183,0.5069625,-0.154,0.0119624995,-6.8889993,109.5312327,31.200000762939453,6.840019,2.532,181.88385
1776330085476,2.1649501,21.171001,-33.412052,35.882782,-0.1071125,-0.2211,0.3333,-6.8889993,109.5312327,31.200000762939453,6.840019,2.532,181.88385
1776330085481,16.243052,6.32205,-20.854952,28.920288,-0.1071125,-0.2211,0.3333,-6.8889993,109.5312327,31.200000762939453,6.840019,2.532,181.88385
1776330085486,2.84295,2.6569502,11.13195,15.218024,-1.355475,0.3089625,-0.0785125,-6.8889993,109.5312327,31.200000762939453,6.840019,2.532,181.88385
1776330085492,-19.40805,11.32005,23.587952,29.10455,-0.685025,0.87395,-0.60101247,-6.8889993,109.5312327,31.200000762939453,6.840019,2.532,181.88385
1776330085497,-2.5069501,10.156051,5.5200005,15.283276,0.0790625,-0.1934625,-0.087037496,-6.8889993,109.5312327,31.200000762939453,6.840019,2.532,181.88385
1776330085511,18.027,-1.9879501,-9.538951,19.450142,0.014162499,-0.6892875,0.4131875,-6.8889993,109.5312327,31.200000762939453,6.840019,2.532,181.88385
1776330085513,2.4859502,-0.261,2.93805,6.976018,-0.224125,0.32587498,-0.1018875,-6.8889993,109.5312327,31.200000762939453,6.840019,2.532,181.88385
1776330085521,-18.237001,14.793001,21.243002,26.727383,-0.16885,0.6494125,-0.5872625,-6.8889993,109.5312327,31.200000762939453,6.840019,2.532,181.88385
1776330085526,-20.565,19.971,21.318,33.924824,-0.2624875,-0.4541625,0.0939125,-6.8889993,109.5312327,31.200000762939453,6.840019,2.532,181.88385
1776330085534,-2.77305,4.104,17.61705,21.425032,-0.31033748,-0.33275,0.7643625,-6.8889993,109.5312327,31.200000762939453,6.840019,2.532,181.88385
1776330085534,16.947,-9.52305,13.309051,23.1321,-0.31033748,-0.33275,0.7643625,-6.8889993,109.5312327,31.200000762939453,6.840019,2.532,181.88385
1776330085545,11.383051,8.635051,10.365001,18.747524,1.3168375,0.4621375,-0.048675,-6.8889993,109.5312327,31.200000762939453,6.840019,2.532,181.88385
1776330085546,-7.122,30.121052,-8.37195,29.400581,-0.600875,-0.1189375,0.1375,-6.8889993,109.5312327,31.200000762939453,6.840019,2.532,181.88385
1776330085547,0.097950004,16.65405,-24.594002,29.642029,-0.600875,-0.1189375,0.1375,-6.8889993,109.5312327,31.200000762939453,6.840019,2.532,181.88385
1776330085551,2.9340003,12.108001,-6.8200502,17.290804,-0.600875,-0.1189375,0.1375,-6.8889993,109.5312327,31.200000762939453,6.840019,2.532,181.88385
1776330085558,-13.564951,11.83005,14.24295,21.820202,-0.7508875,0.15565,-0.3180375,-6.8889993,109.5312327,31.200000762939453,6.840019,2.532,181.88385
1776330085563,-0.66495,15.277051,15.382951,21.716217,-0.1720125,0.0716375,0.2971375,-6.8889993,109.5312327,31.200000762939453,6.840019,2.532,181.88385
1776330085566,21.153002,6.3190503,-4.7580004,22.410114,0.1419,-0.49665,0.503525,-6.8889993,109.5312327,31.200000762939453,6.840019,2.532,181.88385
1776330085569,21.138,-5.43405,-15.17895,25.749758,-0.0507375,-0.47547498,0.2140875,-6.8889993,109.5312327,31.200000762939453,6.840019,2.532,181.88385
1776330085575,-3.3070502,4.8300004,7.7880006,12.944039,-0.0655875,0.61545,-0.41593748,-6.8889993,109.5312327,31.200000762939453,6.840019,2.532,181.88385
1776330085581,-31.692001,25.591951,28.591051,42.402607,-0.1742125,0.9538375,-1.0267125,-6.8889993,109.5312327,31.200000762939453,6.840019,2.532,181.88385
1776330085586,-19.983002,14.829,4.7320504,28.744568,0.23127499,-0.0380875,-0.4808375,-6.8889993,109.5312327,31.200000762939453,6.840019,2.532,181.88385
1776330085593,15.931951,-1.899,2.7610502,18.773361,0.23127499,-0.0380875,-0.4808375,-6.8889993,109.5312327,31.200000762939453,6.840019,2.532,181.88385
1776330085598,18.63105,-8.268001,7.7689505,21.20554,-0.0336875,-0.0996875,0.65999997,-6.8889993,109.5312327,31.200000762939453,6.840019,2.532,181.88385
1776330085608,1.0030501,16.38105,13.500001,21.241718,0.5878125,-0.0050875,0.0939125,-6.8889993,109.5312327,31.200000762939453,6.840019,2.532,181.88385
1776330085608,-5.57205,26.371052,-10.755,27.464203,0.5878125,-0.0050875,0.0939125,-6.8889993,109.5312327,31.200000762939453,6.840019,2.532,181.88385
1776330085608,5.35305,12.88395,-17.83695,23.609055,0.5878125,-0.0050875,0.0939125,-6.8889993,109.5312327,31.200000762939453,6.840019,2.532,181.88385
1776330085615,2.0959501,5.89095,6.49305,11.93318,-0.697675,-0.07315,-0.036025,-6.8889993,109.5312327,31.200000762939453,6.840019,2.532,181.88385
1776330085626,-11.55,8.96595,18.159,21.037794,-0.49445,0.5941375,-0.1871375,-6.8889993,109.5312327,31.200000762939453,6.840019,2.532,181.88385
1776330085627,-4.8130503,14.476951,8.73705,18.272179,0.308,-0.4349125,0.3152875,-6.8889993,109.5312327,31.200000762939453,6.840019,2.532,181.88385
1776330085631,12.010951,5.6730003,-11.187,17.547625,0.308,-0.4349125,0.3152875,-6.8889993,109.5312327,31.200000762939453,6.840019,2.532,181.88385
1776330085631,13.743001,-1.7080501,-13.584001,19.028547,0.308,-0.4349125,0.3152875,-6.8889993,109.5312327,31.200000762939453,6.840019,2.532,181.88385
1776330085640,-7.7779503,11.60505,12.66705,18.892189,-0.4241875,0.2068,-0.361625,-6.8889993,109.5312327,31.200000762939453,6.840019,2.532,181.88385
1776330085643,-19.758001,17.29305,22.31595,31.345724,-0.192225,0.539825,-0.5691125,-6.8889993,109.5312327,31.200000762939453,6.840019,2.532,181.88385
1776330085648,2.05995,4.7580004,8.092051,13.957609,0.070675,-0.0837375,0.2567125,-6.8889993,109.5312327,31.200000762939453,6.840019,2.532,181.88385
1776330085659,16.06995,-3.1300502,3.4249501,16.172602,-0.1720125,-0.8096,0.374825,-6.8889993,109.5312327,31.200000762939453,6.840019,2.532,181.88385
1776330085664,-0.42795002,0.93105006,8.215051,9.85749,0.1450625,0.1502875,-0.115775,-6.8889993,109.5312327,31.200000762939453,6.840019,2.532,181.88385
1776330085666,-13.5070505,23.68605,21.21495,29.609657,0.430375,0.622875,-0.409475,-6.8889993,109.5312327,31.200000762939453,6.840019,2.532,181.88385
1776330085672,-10.200001,24.718052,-6.91095,28.01676,0.74855,-0.3370125,-0.286,-6.8889993,109.5312327,31.200000762939453,6.840019,2.532,181.88385
1776330085679,14.959051,11.19795,-21.471,28.374155,-0.127325,-0.6243875,0.36313748,-6.8889993,109.5312327,31.200000762939453,6.840019,2.532,181.88385
1776330085680,20.72895,6.078,-16.791,27.562824,-0.127325,-0.6243875,0.36313748,-6.8889993,109.5312327,31.200000762939453,6.840019,2.532,181.88385
1776330085684,3.9490502,15.580951,6.12795,19.274258,-0.028324999,0.539825,-0.4871625,-6.8889993,109.5312327,31.200000762939453,6.840019,2.532,181.88385
1776330085685,-8.431951,16.383001,4.54995,19.038055,-0.028324999,0.539825,-0.4871625,-6.8889993,109.5312327,31.200000762939453,6.840019,2.532,181.88385
1776330085695,7.0030503,7.2300005,-1.12695,11.9103775,-0.0889625,-0.048675,-0.20625,-6.8889993,109.5312327,31.200000762939453,6.840019,2.532,181.88385
1776330085700,-1.9080001,0.85905004,-6.2530503,7.6571684,-0.0889625,-0.048675,-0.20625,-6.8889993,109.5312327,31.200000762939453,6.840019,2.532,181.88385
1776330085701,-18.268051,16.834051,20.769001,27.435358,0.0482625,0.0928125,-0.2222,-6.8889993,109.5312327,31.200000762939453,6.840019,2.532,181.88385
1776330085708,-15.745951,19.01505,16.948952,29.444021,-0.1731125,-0.72655,0.488675,-6.8889993,109.5312327,31.200000762939453,6.840019,2.532,181.88385
1776330085714,12.816001,-0.78795004,2.148,16.303707,-0.43065,-0.4923875,0.5897375,-6.8889993,109.5312327,31.200000762939453,6.840019,2.532,181.88385
1776330085714,23.30805,-13.575001,9.228001,26.067083,-0.43065,-0.4923875,0.5897375,-6.8889993,109.5312327,31.200000762939453,6.840019,2.532,181.88385
1776330085719,-5.1480002,2.9299502,24.21795,25.158875,-0.0900625,0.571725,-0.23925,-6.8889993,109.5312327,31.200000762939453,6.840019,2.532,181.88385
1776330085728,-20.84505,28.396952,12.517951,34.93939,0.78155,0.2695,-0.850025,-6.8889993,109.5312327,31.200000762939453,6.840019,2.532,181.88385
1776330085735,-1.09605,21.933,-19.62705,30.550274,0.1238875,-0.423225,0.621775,-6.8889993,109.5312327,31.200000762939453,6.840019,2.532,181.88385
1776330085741,16.866001,1.1890501,-23.161951,29.0514,-0.72435,-0.342375,0.0683375,-6.8889993,109.5312327,31.200000762939453,6.840019,2.532,181.88385
1776330085745,11.977051,0.69600004,3.048,15.71299,-0.2795375,0.489775,-0.3636875,-6.8889993,109.5312327,31.200000762939453,6.840019,2.532,181.88385
1776330085746,-7.9429502,21.063002,13.333051,24.073122,-0.2795375,0.489775,-0.3636875,-6.8889993,109.5312327,31.200000762939453,6.840019,2.532,181.88385
1776330085749,-5.01195,23.535002,-12.439051,26.48482,-0.036849998,-0.5828625,0.2481875,-6.8889993,109.5312327,31.200000762939453,6.840019,2.532,181.88385
1776330085759,17.88105,7.6180506,-18.50295,26.765095,-1.026575,-0.04015,0.0672375,-6.8889993,109.5312327,31.200000762939453,6.840019,2.532,181.88385
1776330085759,8.986051,-4.59795,4.33005,14.139904,-1.026575,-0.04015,0.0672375,-6.8889993,109.5312327,31.200000762939453,6.840019,2.532,181.88385
1776330085766,-15.271951,10.839001,29.286001,30.637459,-0.6125625,1.112375,-0.409475,-6.8889993,109.5312327,31.200000762939453,6.840019,2.532,181.88385
1776330085774,-17.66205,20.119951,15.867001,31.024364,0.1483625,0.0364375,-0.575575,-6.8889993,109.5312327,31.200000762939453,6.840019,2.532,181.88385
1776330085780,2.0400002,2.42505,1.01505,8.866938,0.09295,-0.5489,0.0757625,-6.8889993,109.5312327,31.200000762939453,6.840019,2.532,181.88385
1776330085785,6.459,-11.889001,17.653051,19.56682,-0.456225,0.1992375,0.4758875,-6.8889993,109.5312327,31.200000762939453,6.840019,2.532,181.88385
1776330085792,-11.754001,8.595,26.170052,27.872025,-0.191125,0.22055,-0.215875,-6.8889993,109.5312327,31.200000762939453,6.840019,2.532,181.88385
1776330085795,-7.965,29.320951,-1.0200001,29.89493,1.130525,-0.2413125,-0.3147375,-6.8889993,109.5312327,31.200000762939453,6.840019,2.532,181.88385
1776330085802,13.867051,13.78005,-25.987951,31.995085,1.3572625,-0.36905,0.4758875,-6.8889993,109.5312327,31.200000762939453,6.840019,2.532,181.88385
1776330085808,20.11605,-3.0229502,-3.9439502,22.9756,-0.8424625,0.08965,-0.246675,-6.8889993,109.5312327,31.200000762939453,6.840019,2.532,181.88385
1776330085810,3.15405,-0.606,14.097001,16.161713,-0.8424625,0.08965,-0.246675,-6.8889993,109.5312327,31.200000762939453,6.840019,2.532,181.88385
1776330085816,-9.42405,28.461,7.4290504,27.94227,1.3913625,-0.15619999,-0.47547498,-6.8889993,109.5312327,31.200000762939453,6.840019,2.532,181.88385
1776330085821,-5.9269505,27.427052,-31.591951,39.391872,1.3913625,-0.15619999,-0.47547498,-6.8889993,109.5312327,31.200000762939453,6.840019,2.532,181.88385
1776330085827,17.674952,2.4060001,-24.184052,31.919155,-0.36781248,-0.6818625,0.2960375,-6.8889993,109.5312327,31.200000762939453,6.840019,2.532,181.88385
1776330085827,7.08405,-6.6889505,15.45495,20.999577,-1.4702874,0.0759,0.1832875,-6.8889993,109.5312327,31.200000762939453,6.840019,2.532,181.88385
1776330085832,-22.270052,14.01,34.82595,39.117714,-0.766975,1.0218999,-0.6606875,-6.8889993,109.5312327,31.200000762939453,6.840019,2.532,181.88385
1776330085835,-9.09105,17.832,2.799,23.991896,0.5814875,-0.197725,-0.444675,-6.8889993,109.5312327,31.200000762939453,6.840019,2.532,181.88385
1776330085846,16.93695,0.82005006,-7.32105,19.574156,-0.6722375,0.377025,0.13213749,-6.8889993,109.5312327,31.200000762939453,6.840019,2.532,181.88385
1776330085848,2.7850502,-12.877951,13.584001,19.054146,-0.6722375,0.377025,0.13213749,-6.8889993,109.5312327,31.200000762939453,6.840019,2.532,181.88385
1776330085856,-17.500051,12.364051,39.223053,39.56617,0.7368625,-0.147675,-0.588225,-6.8889993,109.5312327,31.200000762939453,6.840019,2.532,181.88385
1776330085861,-19.80405,29.046001,11.47395,37.497253,0.7368625,-0.147675,-0.588225,-6.8889993,109.5312327,31.200000762939453,6.840019,2.532,181.88385
1776330085879,7.6260004,7.2730503,-18.918001,24.823542,-0.40507498,0.0066,-0.1519375,-6.8889993,109.5312327,31.200000762939453,6.840019,2.532,181.88385
1776330085879,25.33695,-5.5009503,-0.39000002,25.708843,-0.40507498,0.0066,-0.1519375,-6.8889993,109.5312327,31.200000762939453,6.840019,2.532,181.88385
1776330085882,1.06095,6.57105,11.27805,15.618372,0.9581,0.622875,-0.509575,-6.8889993,109.5312327,31.200000762939453,6.840019,2.532,181.88385
1776330085886,-12.657001,29.20605,1.6810501,28.623718,0.7995625,-0.3636875,-0.0688875,-6.8889993,109.5312327,31.200000762939453,6.840019,2.532,181.88385
1776330085891,3.9640503,20.653952,-17.869051,27.80246,0.7995625,-0.3636875,-0.0688875,-6.8889993,109.5312327,31.200000762939453,6.840019,2.532,181.88385
1776330085912,17.99595,-2.742,-13.095,23.499979,0.2206875,0.603625,-0.56168747,-6.8889993,109.5312327,31.200000762939453,6.840019,2.532,181.88385
1776330085912,7.9510503,-2.709,-1.43595,11.517378,0.2206875,0.603625,-0.56168747,-6.8889993,109.5312327,31.200000762939453,6.840019,2.532,181.88385
1776330085912,-11.589001,22.38795,6.8089504,23.193851,0.2206875,0.603625,-0.56168747,-6.8889993,109.5312327,31.200000762939453,6.840019,2.532,181.88385
1776330085916,-15.883051,22.33995,-0.86595005,26.578245,-0.584925,-0.1337875,0.225775,-6.8889993,109.5312327,31.200000762939453,6.840019,2.532,181.88385
1776330085921,7.6330504,-3.1950002,9.11505,15.164284,-0.584925,-0.1337875,0.225775,-6.8889993,109.5312327,31.200000762939453,6.840019,2.532,181.88385
1776330085926,8.658,-11.937,21.76995,24.068197,0.106837496,0.1013375,-0.4393125,-6.8889993,109.5312327,31.200000762939453,6.840019,2.532,181.88385
1776330085927,-11.016001,10.71,24.192001,27.740437,0.821975,0.0418,-0.4818,-6.8889993,109.5312327,31.200000762939453,6.840019,2.532,181.88385
1776330085932,-15.535951,25.774052,11.946,31.45098,0.821975,0.0418,-0.4818,-6.8889993,109.5312327,31.200000762939453,6.840019,2.532,181.88385
1776330085937,1.10895,8.415,0.14595,13.081404,-0.49981248,-0.46585,0.4961,-6.8889993,109.5312327,31.200000762939453,6.840019,2.532,181.88385
1776330085947,10.758,-5.8180504,5.808,13.447854,-0.49981248,-0.46585,0.4961,-6.8889993,109.5312327,31.200000762939453,6.840019,2.532,181.88385
1776330085948,0.29205,9.90705,7.1320505,12.458128,-0.5083375,-0.5105375,0.4918375,-6.8889993,109.5312327,31.200000762939453,6.840019,2.532,181.88385
1776330085948,-7.2850504,29.404951,-6.387,27.259563,-0.5083375,-0.5105375,0.4918375,-6.8889993,109.5312327,31.200000762939453,6.840019,2.532,181.88385
1776330085948,6.9690003,18.048,-24.009,30.119034,-0.5083375,-0.5105375,0.4918375,-6.8889993,109.5312327,31.200000762939453,6.840019,2.532,181.88385
1776330085952,20.77395,0.81105006,-15.658051,26.845171,-0.72545,0.1397,-0.083875,-6.8889993,109.5312327,31.200000762939453,6.840019,2.532,181.88385
1776330085957,6.438,-2.2680001,-2.4829502,11.179739,-0.1816375,0.8207375,-0.50215,-6.8889993,109.5312327,31.200000762939453,6.840019,2.532,181.88385
1776330085962,-13.612051,18.972,20.22105,26.946959,-0.1816375,0.8207375,-0.50215,-6.8889993,109.5312327,31.200000762939453,6.840019,2.532,181.88385
1776330085966,-20.899952,20.998951,12.114,30.995804,-0.0837375,0.2418625,-0.5446375,-6.8889993,109.5312327,31.200000762939453,6.840019,2.532,181.88385
1776330085980,6.7440004,-2.60595,0.66495,12.007551,-0.69135,-0.1827375,0.57915,-6.8889993,109.5312327,31.200000762939453,6.840019,2.532,181.88385
1776330085980,13.090951,-9.004951,11.086051,17.900932,-0.69135,-0.1827375,0.57915,-6.8889993,109.5312327,31.200000762939453,6.840019,2.532,181.88385
1776330085986,-12.951,11.125951,17.874,23.35484,0.152625,0.359975,-0.3499375,-6.8889993,109.5312327,31.200000762939453,6.840019,2.532,181.88385
1776330085987,-11.778001,25.27095,5.3380504,27.380783,0.460075,-0.4712125,0.2960375,-6.8889993,109.5312327,31.200000762939453,6.840019,2.532,181.88385
1776330085992,8.689051,9.15795,-7.3759503,17.17292,0.460075,-0.4712125,0.2960375,-6.8889993,109.5312327,31.200000762939453,6.840019,2.532,181.88385
1776330085996,11.07705,-7.1350503,1.6110001,14.053972,-0.2050125,-0.014575,-0.089237496,-6.8889993,109.5312327,31.200000762939453,6.840019,2.532,181.88385
1776330086002,3.1519501,4.2720003,11.60595,13.020841,-0.2050125,-0.014575,-0.089237496,-6.8889993,109.5312327,31.200000762939453,6.840019,2.532,181.88385
1776330086012,-8.269051,30.952051,1.6620001,28.268698,1.0124125,-0.131725,-0.1923625,-6.8889993,109.5312327,31.200000762939453,6.840019,2.532,181.88385
1776330086016,-1.9300501,19.89195,-26.191051,32.0099,1.0124125,-0.131725,-0.1923625,-6.8889993,109.5312327,31.200000762939453,6.840019,2.532,181.88385
1776330086018,19.24905,-1.5690001,-8.467951,23.272194,-0.6210875,-0.3614875,0.5567375,-6.8889993,109.5312327,31.200000762939453,6.840019,2.532,181.88385
1776330086029,-0.74895006,-1.64295,18.12495,19.226173,0.708125,-0.2880625,-0.1018875,-6.8889993,109.5312327,31.200000762939453,6.840019,2.532,181.88385
1776330086029,-20.302052,14.878951,18.403051,28.789701,0.708125,-0.2880625,-0.1018875,-6.8889993,109.5312327,31.200000762939453,6.840019,2.532,181.88385
1776330086032,-3.8359501,22.888052,-2.9479501,24.472946,0.708125,-0.2880625,-0.1018875,-6.8889993,109.5312327,31.200000762939453,6.840019,2.532,181.88385
1776330086037,10.519051,4.39605,-8.092051,16.079063,-0.79035,0.050325,0.324775,-6.8889993,109.5312327,31.200000762939453,6.840019,2.532,181.88385
1776330086046,10.401,-12.99495,7.0750504,17.68467,-0.79035,0.050325,0.324775,-6.8889993,109.5312327,31.200000762939453,6.840019,2.532,181.88385
1776330086051,-0.411,5.40495,20.254051,20.310417,-0.49555,0.1269125,-0.1274625,-6.8889993,109.5312327,31.200000762939453,6.840019,2.532,181.88385
1776330086055,-17.83695,29.400002,2.38995,31.638641,0.9273,0.3014,-0.7649125,-6.8889993,109.5312327,31.200000762939453,6.840019,2.532,181.88385
1776330086062,-5.07705,12.601951,-13.740001,21.786022,0.6133875,-0.27005,-0.0253,-6.8889993,109.5312327,31.200000762939453,6.840019,2.532,181.88385
1776330086066,16.327051,-3.42705,13.087951,21.320444,-0.9659375,-0.3881625,0.651475,-6.8889993,109.5312327,31.200000762939453,6.840019,2.532,181.88385
1776330086079,0.17505,0.49005002,14.49705,15.8692,0.6666,-0.473275,-0.097625,-6.8889993,109.5312327,31.200000762939453,6.840019,2.532,181.88385
1776330086080,-1.33305,17.68395,-3.8580003,17.692976,0.6666,-0.473275,-0.097625,-6.8889993,109.5312327,31.200000762939453,6.840019,2.532,181.88385
1776330086082,3.489,22.414051,-15.208051,25.386765,0.6666,-0.473275,-0.097625,-6.8889993,109.5312327,31.200000762939453,6.840019,2.532,181.88385
1776330086087,4.572,7.689,-0.22005,12.236005,-0.4785,-0.0210375,0.02255,-6.8889993,109.5312327,31.200000762939453,6.840019,2.532,181.88385
1776330086095,5.61105,-4.00395,1.7530501,8.137259,-0.5647125,0.38445,0.225775,-6.8889993,109.5312327,31.200000762939453,6.840019,2.532,181.88385
1776330086097,-0.01305,11.943001,2.5120502,11.390921,-0.06875,-0.2561625,-0.261525,-6.8889993,109.5312327,31.200000762939453,6.840019,2.532,181.88385
1776330086113,-15.301051,19.522951,4.3900504,22.430252,-0.55935,-0.4371125,0.4664,-6.8889993,109.5312327,31.200000762939453,6.840019,2.532,181.88385
1776330086113,0.052950002,3.25605,10.309951,13.135666,-0.55935,-0.4371125,0.4664,-6.8889993,109.5312327,31.200000762939453,6.840019,2.532,181.88385
1776330086118,15.903001,-8.050051,1.45095,16.93381,-0.55935,-0.4371125,0.4664,-6.8889993,109.5312327,31.200000762939453,6.840019,2.532,181.88385
1776330086128,1.3960501,4.2450004,-3.97305,8.1703415,-0.0240625,-0.20405,-0.263725,-6.8889993,109.5312327,31.200000762939453,6.840019,2.532,181.88385
1776330086128,-14.242051,19.462952,7.5199504,21.84404,0.4813875,0.784575,-0.492525,-6.8889993,109.5312327,31.200000762939453,6.840019,2.532,181.88385
1776330086140,-11.767951,20.33295,10.650001,25.004097,-0.715825,-0.1445125,0.5407875,-6.8889993,109.5312327,31.200000762939453,6.840019,2.532,181.88385
1776330086140,7.2829504,0.588,0.38505003,10.85425,-0.715825,-0.1445125,0.5407875,-6.8889993,109.5312327,31.200000762939453,6.840019,2.532,181.88385
1776330086144,16.477951,-6.9259505,8.67,18.063702,0.8655625,-0.0592625,-0.3201,-6.8889993,109.5312327,31.200000762939453,6.840019,2.532,181.88385
1776330086144,-2.3080502,9.865951,16.044,18.793234,0.8655625,-0.0592625,-0.3201,-6.8889993,109.5312327,31.200000762939453,6.840019,2.532,181.88385
1776330086146,-10.948951,28.576052,2.2680001,28.30723,0.8655625,-0.0592625,-0.3201,-6.8889993,109.5312327,31.200000762939453,6.840019,2.532,181.88385
1776330086161,0.12900001,17.88705,-13.540951,23.609291,4.125E-4,-0.179575,0.2322375,-6.8889993,109.5312327,31.200000762939453,6.840019,2.532,181.88385
1776330086161,1.1880001,1.5460501,4.881,8.926677,-1.1287374,0.130075,-0.00825,-6.8889993,109.5312327,31.200000762939453,6.840019,2.532,181.88385
1776330086166,-4.65495,2.298,25.75995,22.807602,-0.534875,0.0939125,0.02475,-6.8889993,109.5312327,31.200000762939453,6.840019,2.532,181.88385
1776330086172,-3.8410501,17.526001,14.803051,23.169815,-0.534875,0.0939125,0.02475,-6.8889993,109.5312327,31.200000762939453,6.840019,2.532,181.88385
1776330086181,6.0540004,13.995001,-17.07105,22.945606,-0.6540875,-0.0507375,0.243925,-6.8889993,109.5312327,31.200000762939453,6.840019,2.532,181.88385
1776330086186,19.507051,-0.90495,-10.594951,22.362755,-0.6540875,-0.0507375,0.243925,-6.8889993,109.5312327,31.200000762939453,6.840019,2.532,181.88385
1776330086193,-2.9860501,2.1040502,14.54205,16.46761,-0.4912875,0.6505125,-0.59785,-6.8889993,109.5312327,31.200000762939453,6.840019,2.532,181.88385
1776330086198,-22.588951,15.183001,14.370001,27.915869,0.17379999,-0.4923875,0.2237125,-6.8889993,109.5312327,31.200000762939453,6.840019,2.532,181.88385
1776330086203,-6.4939504,18.39495,1.3120501,21.224495,-0.59235,-0.4349125,0.47808748,-6.8889993,109.5312327,31.200000762939453,6.840019,2.532,181.88385
1776330086204,8.16705,2.26005,1.33395,11.1075735,-0.23265,0.0683375,0.242825,-6.8889993,109.5312327,31.200000762939453,6.840019,2.532,181.88385
1776330086210,12.871051,-9.835951,5.6610003,15.94931,0.7517125,0.1695375,-0.654225,-6.8889993,109.5312327,31.200000762939453,6.840019,2.532,181.88385
1776330086210,9.166051,3.2659502,0.79005,10.99989,0.7517125,0.1695375,-0.654225,-6.8889993,109.5312327,31.200000762939453,6.840019,2.532,181.88385
1776330086211,-10.807951,27.709051,-4.1140504,26.220354,0.7517125,0.1695375,-0.654225,-6.8889993,109.5312327,31.200000762939453,6.840019,2.532,181.88385
1776330086227,-9.043051,18.960001,-13.378051,25.167614,0.1302125,0.180125,0.2470875,-6.8889993,109.5312327,31.200000762939453,6.840019,2.532,181.88385
1776330086232,14.029951,0.22395001,-3.381,16.580183,-0.0433125,-0.5350125,-0.1584,-6.8889993,109.5312327,31.200000762939453,6.840019,2.532,181.88385
1776330086232,5.9110503,0.70095,13.09605,14.82432,-0.0433125,-0.5350125,-0.1584,-6.8889993,109.5312327,31.200000762939453,6.840019,2.532,181.88385
1776330086233,-9.694051,6.30705,12.087001,16.347816,-0.0433125,-0.5350125,-0.1584,-6.8889993,109.5312327,31.200000762939453,6.840019,2.532,181.88385
1776330086238,-2.05395,19.58295,10.750951,21.216928,-0.0433125,-0.5350125,-0.1584,-6.8889993,109.5312327,31.200000762939453,6.840019,2.532,181.88385
1776330086249,-5.52405,12.669001,0.57705003,15.30978,-0.3507625,-0.488125,-0.165825,-6.8889993,109.5312327,31.200000762939453,6.840019,2.532,181.88385
1776330086250,0.15300001,-0.13695,5.2660503,7.277998,-0.3507625,-0.488125,-0.165825,-6.8889993,109.5312327,31.200000762939453,6.840019,2.532,181.88385
1776330086252,2.184,5.5669503,15.502951,14.74866,0.4654375,0.0705375,-0.1519375,-6.8889993,109.5312327,31.200000762939453,6.840019,2.532,181.88385
1776330086257,-9.562051,16.335001,11.347051,20.604568,0.4654375,0.0705375,-0.1519375,-6.8889993,109.5312327,31.200000762939453,6.840019,2.532,181.88385
1776330086262,4.18905,8.67405,-4.4830503,12.620703,0.380325,-0.2253625,0.5014625,-6.8889993,109.5312327,31.200000762939453,6.840019,2.532,181.88385
1776330086267,20.434052,-2.46705,-8.0130005,20.193913,-0.027224999,0.2344375,-0.5819,-6.8889993,109.5312327,31.200000762939453,6.840019,2.532,181.88385
1776330086272,0.66795003,3.3640501,-0.984,6.8932524,-0.027224999,0.2344375,-0.5819,-6.8889993,109.5312327,31.200000762939453,6.840019,2.532,181.88385
1776330086280,-13.80405,13.774951,4.8829503,17.461323,-0.1560625,-0.488125,-0.0688875,-6.8889993,109.5312327,31.200000762939453,6.840019,2.532,181.88385
1776330086286,-8.614051,20.81895,5.87505,22.119501,-0.1560625,-0.488125,-0.0688875,-6.8889993,109.5312327,31.200000762939453,6.840019,2.532,181.88385
1776330086286,3.2329502,8.0130005,-4.5280504,12.228038,-0.2369125,-0.43821248,0.344025,-6.8889993,109.5312327,31.200000762939453,6.840019,2.532,181.88385
1776330086296,18.247952,-5.1880503,-0.057000004,17.622576,-0.3592875,0.0407,0.3768875,-6.8889993,109.5312327,31.200000762939453,6.840019,2.532,181.88385
1776330086302,3.0919502,2.394,6.6049504,9.665096,-0.2231625,0.0193875,-0.56485,-6.8889993,109.5312327,31.200000762939453,6.840019,2.532,181.88385
1776330086315,-12.10095,22.420952,11.833051,24.406517,0.30153748,0.0716375,-0.4637875,-6.8889993,109.5312327,31.200000762939453,6.840019,2.532,181.88385
1776330086315,-7.8430505,17.787,-5.9940004,21.155334,0.30153748,0.0716375,-0.4637875,-6.8889993,109.5312327,31.200000762939453,6.840019,2.532,181.88385
1776330086315,6.4500003,10.70505,-5.70195,15.22089,0.30153748,0.0716375,-0.4637875,-6.8889993,109.5312327,31.200000762939453,6.840019,2.532,181.88385
1776330086318,3.693,3.7780502,4.782,8.744953,-0.504075,0.1258125,-0.036025,-6.8889993,109.5312327,31.200000762939453,6.840019,2.532,181.88385
1776330086322,-4.08495,8.415,18.69,18.46909,-0.1518,0.3876125,-0.0614625,-6.8889993,109.5312327,31.200000762939453,6.840019,2.532,181.88385
1776330086327,-5.8429503,15.271951,14.54205,21.199818,-0.0592625,-0.425425,-0.1126125,-6.8889993,109.5312327,31.200000762939453,6.840019,2.532,181.88385
1776330086333,7.3330503,4.46805,-0.462,11.119524,0.1461625,-0.327525,0.276925,-6.8889993,109.5312327,31.200000762939453,6.840019,2.532,181.88385
1776330086340,9.42195,-1.33605,-1.3980001,9.918582,0.0099,0.3014,-0.0264,-6.8889993,109.5312327,31.200000762939453,6.840019,2.532,181.88385
1776330086349,-9.618,12.702001,5.511,15.470726,0.1313125,-0.0103124995,-0.082775,-6.8889993,109.5312327,31.200000762939453,6.840019,2.532,181.88385
1776330086350,-14.629951,21.091951,6.8970003,24.357815,0.1313125,-0.0103124995,-0.082775,-6.8889993,109.5312327,31.200000762939453,6.840019,2.532,181.88385
1776330086358,-3.6130502,10.5060005,8.191051,15.913982,-0.78925,-0.49995,0.406725,-6.8889993,109.5312327,31.200000762939453,6.840019,2.532,181.88385
1776330086358,8.31795,-3.1900501,16.57995,18.240223,-0.78925,-0.49995,0.406725,-6.8889993,109.5312327,31.200000762939453,6.840019,2.532,181.88385
1776330086362,13.819051,-6.117,4.03305,16.16106,0.9048875,0.312125,-0.3881625,-6.8889993,109.5312327,31.200000762939453,6.840019,2.532,181.88385
1776330086367,4.7779503,13.92405,-3.3280501,15.306221,0.9048875,0.312125,-0.3881625,-6.8889993,109.5312327,31.200000762939453,6.840019,2.532,181.88385
1776330086374,-13.909051,29.982002,-6.01305,29.936234,0.4643375,0.033275,-0.47547498,-6.8889993,109.5312327,31.200000762939453,6.840019,2.532,181.88385
1776330086385,-5.70405,11.157001,-5.0269504,16.788286,0.4643375,0.033275,-0.47547498,-6.8889993,109.5312327,31.200000762939453,6.840019,2.532,181.88385
1776330086385,8.11905,0.483,13.135951,15.717734,0.4643375,0.033275,-0.47547498,-6.8889993,109.5312327,31.200000762939453,6.840019,2.532,181.88385
1776330086388,-4.05105,2.2050002,10.66905,12.442206,0.68365,-0.210375,0.1599125,-6.8889993,109.5312327,31.200000762939453,6.840019,2.532,181.88385
1776330086393,3.3790503,12.084001,-1.31895,12.581788,0.2739,-0.1816375,-0.033825,-6.8889993,109.5312327,31.200000762939453,6.840019,2.532,181.88385
1776330086398,7.314,19.806002,-8.061001,20.596218,-0.2497,0.16733749,0.0088,-6.8889993,109.5312327,31.200000762939453,6.840019,2.532,181.88385
1776330086403,0.342,11.971951,-8.101951,15.687094,-0.2497,0.16733749,0.0088,-6.8889993,109.5312327,31.200000762939453,6.840019,2.532,181.88385
1776330086412,3.0270002,1.48905,6.4399505,8.953423,-0.698775,0.1684375,-0.0540375,-6.8889993,109.5312327,31.200000762939453,6.840019,2.532,181.88385
1776330086418,-8.03895,7.4880004,24.28005,23.110582,0.35585,-0.1445125,-0.0391875,-6.8889993,109.5312327,31.200000762939453,6.840019,2.532,181.88385
1776330086427,-17.35605,16.36395,21.916052,30.536741,0.6389625,-0.4701125,0.73768747,-6.8889993,109.5312327,31.200000762939453,6.840019,2.532,181.88385
1776330086429,9.08205,5.874,-5.151,15.691346,-0.0240625,0.5281375,-0.56705,-6.8889993,109.5312327,31.200000762939453,6.840019,2.532,181.88385
1776330086429,21.543001,1.9939501,-8.48505,21.729843,-0.0240625,0.5281375,-0.56705,-6.8889993,109.5312327,31.200000762939453,6.840019,2.532,181.88385
1776330086434,-4.602,8.154,5.0890503,12.871304,-0.0240625,0.5281375,-0.56705,-6.8889993,109.5312327,31.200000762939453,6.840019,2.532,181.88385
1776330086443,-19.116001,16.077002,21.508951,28.944262,0.002475,0.51645,-0.262625,-6.8889993,109.5312327,31.200000762939453,6.840019,2.532,181.88385
1776330086446,-11.859,19.570951,16.32195,28.275316,0.037675,-0.716925,0.0375375,-6.8889993,109.5312327,31.200000762939453,6.840019,2.532,181.88385
1776330086450,7.9800005,4.7700005,0.31095,13.096783,0.22495,-0.4818,0.7462125,-6.8889993,109.5312327,31.200000762939453,6.840019,2.532,181.88385
1776330086456,22.836,-4.392,-10.942051,23.179527,0.42075,-0.309375,0.36313748,-6.8889993,109.5312327,31.200000762939453,6.840019,2.532,181.88385
1776330086464,8.073,10.518001,-1.3789501,15.300333,0.477125,0.3301375,-0.5148,-6.8889993,109.5312327,31.200000762939453,6.840019,2.532,181.88385
1776330086464,-16.01205,23.604002,2.19105,25.945316,0.477125,0.3301375,-0.5148,-6.8889993,109.5312327,31.200000762939453,6.840019,2.532,181.88385
1776330086468,-9.28005,15.421051,0.86895007,19.604239,0.061049998,0.1727,0.25245,-6.8889993,109.5312327,31.200000762939453,6.840019,2.532,181.88385
1776330086478,5.4630003,4.95405,-4.143,10.687894,-0.46048748,-0.6265875,0.1599125,-6.8889993,109.5312327,31.200000762939453,6.840019,2.532,181.88385
1776330086481,5.07705,4.3000503,3.6139503,8.194774,-0.1953875,-0.1881,0.08855,-6.8889993,109.5312327,31.200000762939453,6.840019,2.532,181.88385
1776330086486,-2.6190002,9.196051,12.219001,14.05135,0.1791625,0.456775,0.0182875,-6.8889993,109.5312327,31.200000762939453,6.840019,2.532,181.88385
1776330086496,-2.571,15.375001,11.31795,18.221367,-0.1304875,-0.5190625,-0.1029875,-6.8889993,109.5312327,31.200000762939453,6.840019,2.532,181.88385
1776330086501,4.43295,5.28,6.3439503,11.139345,-0.046475,-0.20295,0.25025,-6.8889993,109.5312327,31.200000762939453,6.840019,2.532,181.88385
1776330086511,3.9970503,-0.74700004,4.3060503,6.965902,0.313225,0.2844875,-0.0210375,-6.8889993,109.5312327,31.200000762939453,6.840019,2.532,181.88385
1776330086515,-8.856,11.026051,4.44705,13.25313,0.17173749,-0.112475,-0.4041125,-6.8889993,109.5312327,31.200000762939453,6.840019,2.532,181.88385
1776330086530,-10.73595,19.818,2.148,20.763653,0.397375,-0.30621248,0.0119624995,-6.8889993,109.5312327,31.200000762939453,6.840019,2.532,181.88385
1776330086531,1.96395,12.70695,1.33395,14.4942,0.397375,-0.30621248,0.0119624995,-6.8889993,109.5312327,31.200000762939453,6.840019,2.532,181.88385
1776330086532,12.076051,1.31595,-4.34205,13.219029,-0.34553748,-0.6798,0.2641375,-6.8889993,109.5312327,31.200000762939453,6.840019,2.532,181.88385
1776330086534,13.339951,2.32005,-1.113,13.512497,-0.0092124995,-0.10395,-0.087037496,-6.8889993,109.5312327,31.200000762939453,6.840019,2.532,181.88385
1776330086544,-5.4570003,13.05405,2.469,14.192546,0.5335,0.7293,-0.3169375,-6.8889993,109.5312327,31.200000762939453,6.840019,2.532,181.88385
1776330086547,-15.010951,26.614952,5.1439505,27.627468,0.1621125,-0.2668875,-0.2349875,-6.8889993,109.5312327,31.200000762939453,6.840019,2.532,181.88385
1776330086551,3.6400502,11.986051,-7.0290003,17.016632,-0.1529,-0.40094998,0.5110875,-6.8889993,109.5312327,31.200000762939453,6.840019,2.532,181.88385
1776330086562,12.79905,-2.02395,7.90605,15.54694,-0.3284875,0.1832875,-0.296725,-6.8889993,109.5312327,31.200000762939453,6.840019,2.532,181.88385
1776330086564,-6.1729503,-1.0510501,22.73805,21.976994,0.5814875,0.0545875,-0.15619999,-6.8889993,109.5312327,31.200000762939453,6.840019,2.532,181.88385
1776330086567,-10.554001,13.332001,21.792002,26.508137,0.5814875,0.0545875,-0.15619999,-6.8889993,109.5312327,31.200000762939453,6.840019,2.532,181.88385
1776330086571,-8.54205,23.608952,-0.62205005,25.393196,0.9933,-0.30085,0.081125,-6.8889993,109.5312327,31.200000762939453,6.840019,2.532,181.88385
1776330086580,2.73705,11.517,-10.24995,17.605583,-0.439175,-0.344575,0.275825,-6.8889993,109.5312327,31.200000762939453,6.840019,2.532,181.88385
1776330086586,15.286951,-1.95,-4.6579504,16.400618,-0.1964875,0.35145,-0.2552,-6.8889993,109.5312327,31.200000762939453,6.840019,2.532,181.88385
1776330086589,1.10895,5.93895,13.231951,14.916904,-0.1964875,0.35145,-0.2552,-6.8889993,109.5312327,31.200000762939453,6.840019,2.532,181.88385
1776330086610,-15.214951,20.634,11.698951,25.527521,0.6026625,-0.0540375,-0.116875,-6.8889993,109.5312327,31.200000762939453,6.840019,2.532,181.88385
1776330086611,6.6870003,9.700951,-13.323001,19.333967,0.6026625,-0.0540375,-0.116875,-6.8889993,109.5312327,31.200000762939453,6.840019,2.532,181.88385
1776330086611,21.01905,6.67395,-17.35095,26.315277,0.6026625,-0.0540375,-0.116875,-6.8889993,109.5312327,31.200000762939453,6.840019,2.532,181.88385
1776330086612,-0.18105,5.328,-12.240001,15.94352,0.0462,0.7016625,-0.2572625,-6.8889993,109.5312327,31.200000762939453,6.840019,2.532,181.88385
1776330086620,-11.229,12.673051,13.024051,20.27807,-0.435875,-0.40205,-0.067925,-6.8889993,109.5312327,31.200000762939453,6.840019,2.532,181.88385
1776330086632,-12.637951,19.79895,23.077951,30.398682,-0.435875,-0.40205,-0.067925,-6.8889993,109.5312327,31.200000762939453,6.840019,2.532,181.88385
1776330086632,4.3560004,2.193,0.34695002,9.991103,0.0397375,0.45155,-0.59675,-6.8889993,109.5312327,31.200000762939453,6.840019,2.532,181.88385
1776330086632,25.36605,-6.01905,-6.87795,23.56815,0.0397375,0.45155,-0.59675,-6.8889993,109.5312327,31.200000762939453,6.840019,2.532,181.88385
1776330086636,3.693,7.1070004,3.0700502,11.575603,0.0397375,0.45155,-0.59675,-6.8889993,109.5312327,31.200000762939453,6.840019,2.532,181.88385
1776330086647,-23.13705,24.001951,13.1320505,30.979998,0.3196875,0.5281375,-0.558525,-6.8889993,109.5312327,31.200000762939453,6.840019,2.532,181.88385
1776330086647,-15.17895,17.650051,4.75605,25.20412,-0.4764375,-0.7117,0.4621375,-6.8889993,109.5312327,31.200000762939453,6.840019,2.532,181.88385
1776330086653,6.7110004,2.322,3.2640002,11.293269,-0.386925,-0.1434125,0.4269375,-6.8889993,109.5312327,31.200000762939453,6.840019,2.532,181.88385
1776330086657,9.669001,-3.4369502,7.80495,12.572743,-0.386925,-0.1434125,0.4269375,-6.8889993,109.5312327,31.200000762939453,6.840019,2.532,181.88385
1776330086663,3.1570501,10.333051,2.73495,11.43083,0.2877875,0.033275,0.2035,-6.8889993,109.5312327,31.200000762939453,6.840019,2.532,181.88385
1776330086668,0.17505,26.428051,-11.16495,25.238342,0.2707375,-0.130625,0.0587125,-6.8889993,109.5312327,31.200000762939453,6.840019,2.532,181.88385
1776330086676,4.5409503,13.057051,-18.38805,23.45162,-0.68282497,0.165275,0.32793748,-6.8889993,109.5312327,31.200000762939453,6.840019,2.532,181.88385
1776330086676,6.8419504,-2.86695,1.71405,10.781349,-0.68282497,0.165275,0.32793748,-6.8889993,109.5312327,31.200000762939453,6.840019,2.532,181.88385
1776330086692,-6.6570005,3.5010002,18.622952,18.223866,-0.829675,-0.030524999,0.2343,-6.8889993,109.5312327,31.200000762939453,6.840019,2.532,181.88385
1776330086692,-10.135051,10.99005,5.47695,16.382055,-0.829675,-0.030524999,0.2343,-6.8889993,109.5312327,31.200000762939453,6.840019,2.532,181.88385
1776330086693,2.15805,18.498001,-2.45895,18.304485,-0.829675,-0.030524999,0.2343,-6.8889993,109.5312327,31.200000762939453,6.840019,2.532,181.88385
1776330086693,4.59795,7.04505,1.077,10.446001,-0.2156,0.2641375,-0.4648875,-6.8889993,109.5312327,31.200000762939453,6.840019,2.532,181.88385
1776330086694,6.55695,-8.838,13.366051,15.939951,0.5292375,0.3047,-0.6191625,-6.8889993,109.5312327,31.200000762939453,6.840019,2.532,181.88385
1776330086694,-8.226001,2.88,29.75505,27.992178,0.5292375,0.3047,-0.6191625,-6.8889993,109.5312327,31.200000762939453,6.840019,2.532,181.88385
1776330086696,-23.391,23.473051,15.049951,34.714745,0.5292375,0.3047,-0.6191625,-6.8889993,109.5312327,31.200000762939453,6.840019,2.532,181.88385
1776330086703,-1.0030501,20.848051,-12.53295,26.419659,0.314325,-0.62755,0.8707875,-6.8889993,109.5312327,31.200000762939453,6.840019,2.532,181.88385
1776330086706,21.52605,6.42,-18.534,28.581608,0.314325,-0.62755,0.8707875,-6.8889993,109.5312327,31.200000762939453,6.840019,2.532,181.88385
1776330086720,15.634951,0.82800007,0.22500001,18.243103,-0.877525,-0.2487375,0.4131875,-6.8889993,109.5312327,31.200000762939453,6.840019,2.532,181.88385
1776330086723,-3.96495,8.628,10.135051,14.7591915,0.2058375,0.54725,-0.34141248,-6.8889993,109.5312327,31.200000762939453,6.840019,2.532,181.88385
1776330086726,-11.62695,27.261002,11.718,28.447372,0.149325,-0.1678875,-0.3147375,-6.8889993,109.5312327,31.200000762939453,6.840019,2.532,181.88385
1776330086728,-7.0909505,15.282001,-6.873,20.245502,0.2110625,-0.1571625,-0.15413749,-6.8889993,109.5312327,31.200000762939453,6.840019,2.532,181.88385
1776330086734,14.953951,-1.1380501,-2.1360002,16.167934,-0.504075,-0.4712125,0.67705,-6.8889993,109.5312327,31.200000762939453,6.840019,2.532,181.88385
1776330086741,8.995951,-0.63000005,5.4199505,11.650708,-0.29755,0.31845,0.292875,-6.8889993,109.5312327,31.200000762939453,6.840019,2.532,181.88385
1776330086748,-14.319,15.34605,14.499001,22.738077,0.3612125,0.2184875,-0.20515,-6.8889993,109.5312327,31.200000762939453,6.840019,2.532,181.88385
1776330086751,-9.486,16.081951,11.09595,21.923155,0.3612125,0.2184875,-0.20515,-6.8889993,109.5312327,31.200000762939453,6.840019,2.532,181.88385
1776330086754,6.3040504,2.25705,8.016001,12.740385,-0.292325,-0.2008875,0.4673625,-6.8889993,109.5312327,31.200000762939453,6.840019,2.532,181.88385
1776330086759,8.02995,-5.8219504,6.9570003,12.240139,-0.4156625,-0.425425,0.2418625,-6.8889993,109.5312327,31.200000762939453,6.840019,2.532,181.88385
1776330086763,3.17805,2.67195,2.02305,6.1429586,0.6634375,0.3876125,-0.3722125,-6.8889993,109.5312327,31.200000762939453,6.840019,2.532,181.88385
1776330086765,-13.287001,22.309052,3.01005,22.140577,0.6634375,0.3876125,-0.3722125,-6.8889993,109.5312327,31.200000762939453,6.840019,2.532,181.88385
1776330086786,-15.442051,23.08905,4.1530504,26.896711,0.5687,0.88467497,-0.3839,-6.8889993,109.5312327,31.200000762939453,6.840019,2.532,181.88385
1776330086786,12.241051,0.021000002,-5.6850004,16.176765,0.5687,0.88467497,-0.3839,-6.8889993,109.5312327,31.200000762939453,6.840019,2.532,181.88385
1776330086791,24.132002,-4.33005,-7.668,23.786186,-0.044275,-0.14973749,-0.0380875,-6.8889993,109.5312327,31.200000762939453,6.840019,2.532,181.88385
1776330086791,1.3240501,9.991051,-6.576,14.384464,-0.044275,-0.14973749,-0.0380875,-6.8889993,109.5312327,31.200000762939453,6.840019,2.532,181.88385
1776330086791,-10.69005,22.411951,-3.7189503,22.96316,-0.044275,-0.14973749,-0.0380875,-6.8889993,109.5312327,31.200000762939453,6.840019,2.532,181.88385
1776330086794,-2.523,22.399952,-6.729,23.412245,-0.044275,-0.14973749,-0.0380875,-6.8889993,109.5312327,31.200000762939453,6.840019,2.532,181.88385
1776330086798,5.4220505,2.3700001,-9.667951,13.75054,-1.3267375,0.18975,0.31955,-6.8889993,109.5312327,31.200000762939453,6.840019,2.532,181.88385
1776330086804,5.90805,-8.215051,23.262001,23.044151,-1.05105,0.43559998,-0.23705,-6.8889993,109.5312327,31.200000762939453,6.840019,2.532,181.88385
1776330086819,-15.106951,3.081,45.892952,43.339703,-1.05105,0.43559998,-0.23705,-6.8889993,109.5312327,31.200000762939453,6.840019,2.532,181.88385
1776330086819,-15.45705,19.750952,23.061,35.92471,1.37115,-0.5020125,0.3950375,-6.8889993,109.5312327,31.200000762939453,6.840019,2.532,181.88385
1776330086819,8.787001,11.47605,-16.935001,24.996496,1.37115,-0.5020125,0.3950375,-6.8889993,109.5312327,31.200000762939453,6.840019,2.532,181.88385
1776330086829,11.58495,-0.25095,-5.1730504,15.151249,-0.52635,0.243925,-0.3169375,-6.8889993,109.5312327,31.200000762939453,6.840019,2.532,181.88385
1776330086831,-11.94795,3.1720502,24.46005,24.955353,-0.52635,0.243925,-0.3169375,-6.8889993,109.5312327,31.200000762939453,6.840019,2.532,181.88385
1776330086837,-12.658951,13.624051,15.60105,24.410759,1.07635,-1.0500875,0.41525,-6.8889993,109.5312327,31.200000762939453,6.840019,2.532,181.88385
1776330086842,6.6220503,22.066952,-20.17995,29.384005,-0.0070125,-0.589325,0.619575,-6.8889993,109.5312327,31.200000762939453,6.840019,2.532,181.88385
1776330086849,20.199001,9.735001,-33.204002,37.929516,-0.6318125,0.35145,0.2226125,-6.8889993,109.5312327,31.200000762939453,6.840019,2.532,181.88385
1776330086852,23.62005,-2.46405,-18.954,31.893696,-0.64556247,0.326975,-0.6936875,-6.8889993,109.5312327,31.200000762939453,6.840019,2.532,181.88385
1776330086857,4.25595,7.2030005,0.71595,13.096306,0.0386375,0.9186375,-0.8872875,-6.8889993,109.5312327,31.200000762939453,6.840019,2.532,181.88385
1776330086862,-23.941952,14.938951,3.0580502,25.327723,-0.7425,-0.5168625,0.1247125,-6.8889993,109.5312327,31.200000762939453,6.840019,2.532,181.88385
1776330086867,-13.49505,17.26695,6.9090004,23.448116,-0.52635,-0.325325,0.6727875,-6.8889993,109.5312327,31.200000762939453,6.840019,2.532,181.88385
1776330086872,9.939,1.2709501,3.5419502,13.1916485,-0.323125,0.295075,0.2695,-6.8889993,109.5312327,31.200000762939453,6.840019,2.532,181.88385
1776330086885,15.460051,-7.971,1.6570501,16.616505,-0.323125,0.295075,0.2695,-6.8889993,109.5312327,31.200000762939453,6.840019,2.532,181.88385
1776330086886,0.54795,3.04095,15.088051,15.64426,-0.259325,0.342925,-0.10615,-6.8889993,109.5312327,31.200000762939453,6.840019,2.532,181.88385
1776330086887,-25.537052,18.63705,34.17705,40.37443,-0.1953875,0.473825,-0.66385,-6.8889993,109.5312327,31.200000762939453,6.840019,2.532,181.88385
1776330086891,-23.16105,14.3209505,26.07195,38.23468,0.22605,-0.048675,0.309925,-6.8889993,109.5312327,31.200000762939453,6.840019,2.532,181.88385
1776330086897,12.222,2.66505,1.4770501,17.723806,0.1728375,-1.0065,0.9356875,-6.8889993,109.5312327,31.200000762939453,6.840019,2.532,181.88385
1776330086902,18.966002,2.94195,-3.6780002,19.178408,0.363275,-0.055,0.2695,-6.8889993,109.5312327,31.200000762939453,6.840019,2.532,181.88385
1776330086907,-0.88500005,15.649951,2.2150502,16.50023,0.3037375,-0.2402125,-0.1584,-6.8889993,109.5312327,31.200000762939453,6.840019,2.532,181.88385
1776330086916,-9.0379505,26.196001,3.8410501,25.68102,0.0419375,-0.2083125,0.3694625,-6.8889993,109.5312327,31.200000762939453,6.840019,2.532,181.88385
1776330086917,1.6189501,20.07195,-5.7979503,21.900364,0.0419375,-0.2083125,0.3694625,-6.8889993,109.5312327,31.200000762939453,6.840019,2.532,181.88385
1776330086922,14.3869505,1.335,-17.313002,22.420147,-0.13585,-0.2413125,0.51425,-6.8889993,109.5312327,31.200000762939453,6.840019,2.532,181.88385
1776330086930,14.83005,2.39205,-6.3799505,17.540365,-0.4593875,0.064075,-0.051975,-6.8889993,109.5312327,31.200000762939453,6.840019,2.532,181.88385
1776330086936,-9.34395,17.808,10.284,21.578072,-0.1560625,0.54945,-0.590425,-6.8889993,109.5312327,31.200000762939453,6.840019,2.532,181.88385
1776330086948,-17.701052,19.77,12.0709505,27.637886,-0.6370375,0.058849998,0.082225,-6.8889993,109.5312327,31.200000762939453,6.840019,2.532,181.88385
1776330086949,4.75395,1.026,8.236051,13.179411,-0.6370375,0.058849998,0.082225,-6.8889993,109.5312327,31.200000762939453,6.840019,2.532,181.88385
1776330086953,7.49205,-8.766001,19.75605,20.936047,0.35475,0.3460875,-0.14025,-6.8889993,109.5312327,31.200000762939453,6.840019,2.532,181.88385
1776330086959,-9.502951,-1.9570501,23.265001,24.352867,0.35475,0.3460875,-0.14025,-6.8889993,109.5312327,31.200000762939453,6.840019,2.532,181.88385
1776330086962,-7.0399504,16.40205,8.418,20.658182,0.8006625,-0.2391125,0.12265,-6.8889993,109.5312327,31.200000762939453,6.840019,2.532,181.88385
1776330086965,-3.2350502,22.77795,-12.291,24.998749,-0.3348125,-0.2253625,0.6004625,-6.8889993,109.5312327,31.200000762939453,6.840019,2.532,181.88385
1776330086971,7.11495,7.6699505,-11.938951,17.699083,-0.3348125,-0.2253625,0.6004625,-6.8889993,109.5312327,31.200000762939453,6.840019,2.532,181.88385
1776330086983,12.883051,-2.112,5.80305,14.969152,-0.7275125,-0.07315,0.100237496,-6.8889993,109.5312327,31.200000762939453,6.840019,2.532,181.88385
1776330086984,-4.1329503,12.760051,17.922,20.90201,1.0709875,-0.1167375,0.0768625,-6.8889993,109.5312327,31.200000762939453,6.840019,2.532,181.88385
1776330086988,-10.36005,24.688951,0.09105001,25.600143,0.198275,-0.36905,0.5643,-6.8889993,109.5312327,31.200000762939453,6.840019,2.532,181.88385
1776330086993,11.74995,18.477001,-16.365002,26.989082,-0.56581247,-0.2211,0.160875,-6.8889993,109.5312327,31.200000762939453,6.840019,2.532,181.88385
1776330086998,16.477951,5.59905,-15.093,23.826855,-0.56581247,-0.2211,0.160875,-6.8889993,109.5312327,31.200000762939453,6.840019,2.532,181.88385
1776330087006,2.59395,2.7529502,2.46405,8.376806,-0.24653749,0.523875,-0.443575,-6.8889993,109.5312327,31.200000762939453,6.840019,2.532,181.88385
1776330087011,-14.11305,13.191001,18.52695,23.088308,-0.24653749,0.523875,-0.443575,-6.8889993,109.5312327,31.200000762939453,6.840019,2.532,181.88385
1776330087019,-18.798,18.74205,18.693,30.590668,0.0078375,-0.30195,0.8218375,-6.8889993,109.5312327,31.200000762939453,6.840019,2.532,181.88385
1776330087019,3.82995,0.65805006,6.234,11.9949665,0.0078375,-0.30195,0.8218375,-6.8889993,109.5312327,31.200000762939453,6.840019,2.532,181.88385
1776330087028,17.706001,-10.05,7.3380003,19.712132,0.1450625,0.0716375,-0.509575,-6.8889993,109.5312327,31.200000762939453,6.840019,2.532,181.88385
1776330087029,-0.9670501,0.91095006,12.121051,13.69734,0.3845875,-0.4371125,0.146025,-6.8889993,109.5312327,31.200000762939453,6.840019,2.532,181.88385
1776330087030,-19.356,14.058001,12.451051,24.314428,0.3845875,-0.4371125,0.146025,-6.8889993,109.5312327,31.200000762939453,6.840019,2.532,181.88385
1776330087035,-15.106951,22.60095,7.65705,27.457092,0.0132,-0.6776,0.719675,-6.8889993,109.5312327,31.200000762939453,6.840019,2.532,181.88385
1776330087039,4.43505,11.368051,-1.33305,15.311537,0.0132,-0.6776,0.719675,-6.8889993,109.5312327,31.200000762939453,6.840019,2.532,181.88385
1776330087053,25.093052,-7.4869504,-6.9810004,24.742899,0.6942375,0.8591,-0.852225,-6.8889993,109.5312327,31.200000762939453,6.840019,2.532,181.88385
1776330087054,19.668001,5.0929503,5.8549504,21.863403,0.6942375,0.8591,-0.852225,-6.8889993,109.5312327,31.200000762939453,6.840019,2.532,181.88385
1776330087058,-15.48795,23.53005,10.998,28.565187,0.6942375,0.8591,-0.852225,-6.8889993,109.5312327,31.200000762939453,6.840019,2.532,181.88385
1776330087067,-21.039001,25.446001,6.5449505,32.640793,0.2633125,0.104637496,-0.04235,-6.8889993,109.5312327,31.200000762939453,6.840019,2.532,181.88385
1776330087069,4.25805,13.56,-4.28205,18.403257,0.037675,-0.6776,0.6494125,-6.8889993,109.5312327,31.200000762939453,6.840019,2.532,181.88385
1776330087076,11.84805,6.6829505,-7.3639503,16.05523,0.103675,0.15675,0.3779875,-6.8889993,109.5312327,31.200000762939453,6.840019,2.532,181.88385
