timestamp,ax,ay,az,magnitude,gx,gy,gz,lat,lon,alt,speed,accuracy,bearing
1776325438670,0.95100003,10.38105,1.3770001,8.412058,,,,-6.8953196,109.4101356,34.39999771118164,0.0,15.454,0.0
1776325438671,-0.39000002,9.529051,4.32705,10.060603,,,,-6.8953196,109.4101356,34.39999771118164,0.0,15.454,0.0
1776325438672,1.61205,8.97105,1.59195,9.414293,,,,-6.8953196,109.4101356,34.39999771118164,0.0,15.454,0.0
1776325438672,1.5450001,8.568001,2.9190001,9.228855,,,,-6.8953196,109.4101356,34.39999771118164,0.0,15.454,0.0
1776325438673,-0.28695002,9.93795,3.0169501,10.157582,,,,-6.8953196,109.4101356,34.39999771118164,0.0,15.454,0.0
1776325438673,0.84795004,8.865001,3.58695,9.712078,,,,-6.8953196,109.4101356,34.39999771118164,0.0,15.454,0.0
1776325438673,1.8610501,10.318951,2.079,10.494056,,,,-6.8953196,109.4101356,34.39999771118164,0.0,15.454,0.0
1776325438701,-0.15705001,9.831,3.0940502,10.344882,,,,-6.8953196,109.4101356,34.39999771118164,0.0,15.454,0.0
1776325438701,0.91200006,9.114,3.0270002,9.786364,,,,-6.8953196,109.4101356,34.39999771118164,0.0,15.454,0.0
1776325438701,1.9759501,9.967051,2.28195,10.288564,,,,-6.8953196,109.4101356,34.39999771118164,0.0,15.454,0.0
1776325438702,1.0489501,10.408051,1.4460001,10.505907,0.0479875,-0.0111375,0.0385,-6.8953196,109.4101356,34.39999771118164,0.0,15.454,0.0
1776325438721,-0.648,9.571951,4.22205,10.48661,0.0097624995,0.0144375,-0.037125,-6.8953196,109.4101356,34.39999771118164,0.0,15.454,0.0
1776325438722,1.71,8.872951,1.9969501,9.500723,-0.04675,0.060225,-0.0169125,-6.8953196,109.4101356,34.39999771118164,0.0,15.454,0.0
1776325438738,1.64295,8.6310005,2.598,9.22978,0.0342375,-0.0154,0.047025,-6.8953196,109.4101356,34.39999771118164,0.0,15.454,0.0
1776325438749,-0.73200005,9.831,3.5010002,10.2150955,-0.0169125,-0.005775,-0.0094875,-6.8953196,109.4101356,34.39999771118164,0.0,15.454,0.0
1776325438752,1.1329501,9.07905,2.7970502,9.696984,0.014025,-0.0196625,0.02145,-6.8953196,109.4101356,34.39999771118164,0.0,15.454,0.0
1776325438771,1.9060501,9.859051,2.70795,10.259663,0.014025,-0.0196625,0.02145,-6.8953196,109.4101356,34.39999771118164,0.0,15.454,0.0
1776325438777,0.8880001,10.633051,1.30005,10.651113,0.014025,-0.0196625,0.02145,-6.8953196,109.4101356,34.39999771118164,0.0,15.454,0.0
1776325438782,-0.44895002,9.672001,3.834,10.461319,0.02035,0.010175,-0.036025,-6.8953196,109.4101356,34.39999771118164,0.0,15.454,0.0
1776325438801,1.6620001,8.877001,2.0310001,9.497704,-0.045649998,0.0496375,-0.0072875,-6.8953196,109.4101356,34.39999771118164,0.0,15.454,0.0
1776325438802,1.6500001,8.571,2.529,9.169441,0.02145,-0.0185625,0.047025,-6.8953196,109.4101356,34.39999771118164,0.0,15.454,0.0
1776325438814,-0.99105006,9.804001,3.5269501,10.206797,-0.0158125,-0.006875,-9.625E-4,-6.8953196,109.4101356,34.39999771118164,0.0,15.454,0.0
1776325438839,1.14195,8.89395,3.4750502,9.734779,-0.014712499,0.0155375,-0.0584375,-6.8953196,109.4101356,34.39999771118164,0.0,15.454,0.0
1776325438839,2.46,10.03905,1.7860501,10.338346,0.0352,-0.036575,0.0171875,-6.8953196,109.4101356,34.39999771118164,0.0,15.454,0.0
1776325438844,0.58695,10.654051,1.8510001,10.731322,0.0352,-0.036575,0.0171875,-6.8953196,109.4101356,34.39999771118164,0.0,15.454,0.0
1776325438853,-0.25500003,9.682051,3.2980502,10.331491,-0.0328625,0.044275,1.375E-4,-6.8953196,109.4101356,34.39999771118164,0.0,15.454,0.0
1776325438867,2.08605,8.7619505,1.9780501,9.443499,-0.0328625,0.044275,1.375E-4,-6.8953196,109.4101356,34.39999771118164,0.0,15.454,0.0
1776325438892,1.2790501,8.56095,3.0960002,9.243093,0.0086624995,-0.0078375,0.0501875,-6.8953196,109.4101356,34.39999771118164,0.0,15.454,0.0
1776325438894,-1.01205,9.732,3.8920503,10.272741,0.02035,-0.037675,0.028875,-6.8953196,109.4101356,34.39999771118164,0.0,15.454,0.0
1776325438894,1.57095,9.189,2.8980002,9.86445,0.02035,-0.037675,0.028875,-6.8953196,109.4101356,34.39999771118164,0.0,15.454,0.0
1776325438903,2.5120502,9.603001,2.229,10.1115465,0.02035,-0.037675,0.028875,-6.8953196,109.4101356,34.39999771118164,0.0,15.454,0.0
1776325438918,0.31800002,10.90095,1.0200001,10.784857,0.0268125,-0.0248875,0.0086624995,-6.8953196,109.4101356,34.39999771118164,0.0,15.454,0.0
1776325438923,-0.97905004,9.450001,4.524,10.575148,0.0182875,0.0218625,-0.0616,-6.8953196,109.4101356,34.39999771118164,0.0,15.454,0.0
1776325438933,2.4859502,8.722051,1.7220001,9.500178,-0.0669625,0.0474375,-0.001925,-6.8953196,109.4101356,34.39999771118164,0.0,15.454,0.0
1776325438957,1.4940001,8.547,2.8620002,9.209177,0.0385,-0.0185625,0.0672375,-6.8953196,109.4101356,34.39999771118164,0.0,15.454,0.0
1776325438959,-1.45095,9.94995,3.7020001,10.413848,-0.001925,0.0176,-0.0627,-6.8953196,109.4101356,34.39999771118164,0.0,15.454,0.0
1776325438964,1.67595,9.18105,2.802,9.878222,-0.001925,0.0176,-0.0627,-6.8953196,109.4101356,34.39999771118164,0.0,15.454,0.0
1776325438974,2.7109501,9.58905,2.229,10.144565,0.0149875,-0.0419375,0.0374,-6.8953196,109.4101356,34.39999771118164,0.0,15.454,0.0
1776325438984,0.28005,10.992001,1.317,10.888241,0.0268125,-0.021724999,0.0171875,-6.8953196,109.4101356,34.39999771118164,0.0,15.454,0.0
1776325439012,-0.63600004,9.46905,4.0420504,10.429895,0.0257125,-0.022824999,0.054449998,-6.8953196,109.4101356,34.39999771118164,0.0,15.454,0.0
1776325439015,2.457,8.755051,2.016,9.53724,-0.0061875,0.0048125,-0.0254375,-6.8953196,109.4101356,34.39999771118164,0.0,15.454,0.0
1776325439017,1.71,8.63805,2.5069501,9.231919,-0.0061875,0.0048125,-0.0254375,-6.8953196,109.4101356,34.39999771118164,0.0,15.454,0.0
1776325439042,-1.5180001,9.91005,3.765,10.413807,-0.0061875,0.0048125,-0.0254375,-6.8953196,109.4101356,34.39999771118164,0.0,15.454,0.0
1776325439043,1.5160501,9.370951,2.9260502,10.029581,0.0171875,-0.053625,0.0246125,-6.8953196,109.4101356,34.39999771118164,0.0,15.454,0.0
1776325439044,3.04905,9.535951,1.5589501,10.111673,0.0171875,-0.053625,0.0246125,-6.8953196,109.4101356,34.39999771118164,0.0,15.454,0.0
1776325439055,-0.43005002,10.959001,1.5799501,10.886858,1.375E-4,0.03355,-0.07865,-6.8953196,109.4101356,34.39999771118164,0.0,15.454,0.0
1776325439064,-0.81105006,9.523951,4.28205,10.55637,1.375E-4,0.03355,-0.07865,-6.8953196,109.4101356,34.39999771118164,0.0,15.454,0.0
1776325439085,2.84505,8.52795,1.7220001,9.434029,-0.0605,0.0240625,0.0023375,-6.8953196,109.4101356,34.39999771118164,0.0,15.454,0.0
1776325439086,0.81705004,8.676001,2.8860002,9.230681,-0.0083875,0.0209,-0.0413875,-6.8953196,109.4101356,34.39999771118164,0.0,15.454,0.0
1776325439098,-1.743,10.015051,3.6160502,10.477803,-0.005225,0.00385,-0.0584375,-6.8953196,109.4101356,34.39999771118164,0.0,15.454,0.0
1776325439123,1.7080501,9.117001,2.77095,9.840094,-0.005225,0.00385,-0.0584375,-6.8953196,109.4101356,34.39999771118164,0.0,15.454,0.0
1776325439124,2.3449502,9.47595,2.6130002,10.0523815,0.0235125,-0.0078375,0.02145,-6.8953196,109.4101356,34.39999771118164,0.0,15.454,0.0
1776325439127,0.069000006,11.04195,0.80895007,10.867883,0.0235125,-0.0078375,0.02145,-6.8953196,109.4101356,34.39999771118164,0.0,15.454,0.0
1776325439142,-0.89205,9.34395,4.737,10.584782,0.0246125,0.026124999,-0.0551375,-6.8953196,109.4101356,34.39999771118164,0.0,15.454,0.0
1776325439146,3.0559502,8.679001,1.4130001,9.564284,-0.0807125,0.0378125,0.0097624995,-6.8953196,109.4101356,34.39999771118164,0.0,15.454,0.0
1776325439174,1.09395,8.563951,2.9910002,9.222425,0.045925,-0.0323125,0.0715,-6.8953196,109.4101356,34.39999771118164,0.0,15.454,0.0
1776325439175,-1.9770001,10.20705,3.762,10.689644,1.375E-4,0.009075,-0.0594,-6.8953196,109.4101356,34.39999771118164,0.0,15.454,0.0
1776325439184,2.361,9.450001,2.7970502,10.245222,0.093775,0.0133375,0.0565125,-6.8953196,109.4101356,34.39999771118164,0.0,15.454,0.0
1776325439202,0.156,11.1,0.44295,10.936989,0.093775,0.0133375,0.0565125,-6.8953196,109.4101356,34.39999771118164,0.0,15.454,0.0
1776325439216,2.87895,8.632951,1.1520001,9.52577,0.0576125,-0.0237875,0.1252625,-6.8953196,109.4101356,34.39999771118164,0.0,15.454,0.0
1776325439243,1.0489501,8.691,2.6869502,9.230877,0.08635,0.117699996,0.0518375,-6.8953196,109.4101356,34.39999771118164,0.0,15.454,0.0
1776325439244,-1.8580501,10.045951,4.1599503,10.670819,0.1948375,0.10175,0.2338875,-6.8953196,109.4101356,34.39999771118164,0.0,15.454,0.0
1776325439367,1.8610501,8.853001,2.742,9.6965,-0.168025,-0.011,0.0721875,-6.8953196,109.4101356,34.39999771118164,0.0,15.454,0.0
1776325439367,1.983,9.74205,2.63895,10.16818,0.0704,0.028324999,0.15619999,-6.8953196,109.4101356,34.39999771118164,0.0,15.454,0.0
1776325439367,0.582,10.72605,0.78795004,10.6501875,-0.135025,-0.0919875,-0.015125,-6.8953196,109.4101356,34.39999771118164,0.0,15.454,0.0
1776325439367,-0.69405,9.60105,3.9970503,10.468412,0.1703625,0.141075,0.064625,-6.8953196,109.4101356,34.39999771118164,0.0,15.454,0.0
1776325439367,2.2339501,8.62605,2.36805,9.469619,-0.1595,-0.117425,-0.160875,-6.8953196,109.4101356,34.39999771118164,0.0,15.454,0.0
1776325439367,1.5829501,8.776951,2.6440501,9.335712,0.0352,0.0474375,0.0540375,-6.8953196,109.4101356,34.39999771118164,0.0,15.454,0.0
1776325439368,-1.59405,10.05795,3.7069502,10.5369,0.1375,0.0719125,0.2019875,-6.8953196,109.4101356,34.39999771118164,0.0,15.454,0.0
1776325439368,1.5280501,9.12405,2.7469501,9.827648,0.08635,-0.019524999,0.163625,-6.8953196,109.4101356,34.39999771118164,0.0,15.454,0.0
1776325439368,2.9599502,9.558001,1.7359501,10.089773,-0.0328625,-0.12595,-0.013062499,-6.8953196,109.4101356,34.39999771118164,0.0,15.454,0.0
1776325439368,-0.09705,10.731001,1.9009501,10.736759,0.092675,0.0633875,0.116875,-6.8953196,109.4101356,34.39999771118164,0.0,15.454,0.0
1776325439368,-0.68205005,9.792001,4.1790004,10.681989,0.02255,0.0644875,0.0636625,-6.8953196,109.4101356,34.39999771118164,0.0,15.454,0.0
1776325439368,2.67,8.299951,2.01405,9.295146,-0.0636625,-0.03025,-0.1599125,-6.8953196,109.4101356,34.39999771118164,0.0,15.454,0.0
1776325439368,1.14495,8.99895,2.6460001,9.418641,-0.0169125,0.0336875,-0.05555,-6.8953196,109.4101356,34.39999771118164,0.0,15.454,0.0
1776325439389,-0.79905003,9.78705,3.2260501,10.152503,0.12045,0.1241625,0.1753125,-6.8953196,109.4101356,34.39999771118164,0.0,15.454,0.0
1776325439396,0.86895007,8.748,3.7600503,9.679628,-0.0551375,-0.1739375,0.01045,-6.8953196,109.4101356,34.39999771118164,0.0,15.454,0.0
1776325439401,2.26605,10.189951,1.8390001,10.415624,0.0895125,0.0666875,0.22,-6.8953196,109.4101356,34.39999771118164,0.0,15.454,0.0
1776325439422,1.05795,10.149,2.15505,10.42639,-0.0658625,0.095425,-0.146025,-6.8953196,109.4101356,34.39999771118164,0.0,15.454,0.0
1776325439422,-0.46905002,9.924001,3.4320002,10.494204,0.0831875,-0.0345125,0.0210375,-6.8953196,109.4101356,34.39999771118164,0.0,15.454,0.0
1776325439428,2.4480002,8.623051,1.79595,9.4123955,0.0831875,-0.0345125,0.0210375,-6.8953196,109.4101356,34.39999771118164,0.0,15.454,0.0
1776325439437,1.45095,8.34105,3.85995,9.326245,0.1395625,0.013475,-0.0407,-6.8953196,109.4101356,34.39999771118164,0.0,15.454,0.0
1776325439457,-0.76995003,10.314,2.502,10.378069,-0.2127125,-0.020624999,-0.1247125,-6.8953196,109.4101356,34.39999771118164,0.0,15.454,0.0
1776325439462,0.924,8.53995,4.275,9.751452,0.0394625,-0.12815,0.00715,-6.8953196,109.4101356,34.39999771118164,0.0,15.454,0.0
1776325439467,2.84505,10.321951,1.2379501,10.572847,0.0565125,0.10065,0.1604625,-6.8953196,109.4101356,34.39999771118164,0.0,15.454,0.0
1776325439481,0.95505005,10.48005,1.365,10.603878,0.052249998,0.143275,0.0785125,-6.8953196,109.4101356,34.39999771118164,0.0,15.454,0.0
1776325439488,-0.528,10.12005,3.62595,10.731159,-0.1945625,-0.004675,-0.02475,-6.8953196,109.4101356,34.39999771118164,0.0,15.454,0.0
1776325439506,1.9570501,8.51595,2.1460502,9.34432,-0.1552375,-0.0067375,-0.1161875,-6.8953196,109.4101356,34.39999771118164,0.0,15.454,0.0
1776325439507,1.3080001,8.872951,3.4680002,9.561651,0.010725,0.0570625,-0.0182875,-6.8953196,109.4101356,34.39999771118164,0.0,15.454,0.0
1776325439524,0.49605003,9.541051,2.3749502,9.788091,-0.004125,0.1848,0.015675,-6.8953196,109.4101356,34.39999771118164,0.0,15.454,0.0
1776325439531,-0.47595003,8.679001,4.30095,9.715959,-0.0083875,-0.0462,0.10505,-6.8953196,109.4101356,34.39999771118164,0.0,15.454,0.0
1776325439537,1.8010501,10.52295,2.28195,10.67689,0.094875,0.0633875,0.047575,-6.8953196,109.4101356,34.39999771118164,0.0,15.454,0.0
1776325439561,3.0250502,9.370951,1.28805,10.080176,-0.11055,-0.102575,-0.0215875,-6.8953196,109.4101356,34.39999771118164,0.0,15.454,0.0
1776325439561,-1.3740001,10.69005,3.1039503,10.988867,-0.11055,-0.102575,-0.0215875,-6.8953196,109.4101356,34.39999771118164,0.0,15.454,0.0
1776325439568,1.09695,8.773951,2.4550502,9.539175,0.1332375,0.077275,0.0966625,-6.8953196,109.4101356,34.39999771118164,0.0,15.454,0.0
1776325439641,2.112,8.463,3.9630003,9.57233,0.207625,0.059125,0.1211375,-6.8953196,109.4101356,34.39999771118164,0.0,15.454,0.0
1776325439641,0.61095005,9.807,1.7119501,9.893691,0.207625,0.059125,0.1211375,-6.8953196,109.4101356,34.39999771118164,0.0,15.454,0.0
1776325439641,-0.91605,9.13395,3.5419502,9.850251,0.207625,0.059125,0.1211375,-6.8953196,109.4101356,34.39999771118164,0.0,15.454,0.0
1776325439641,1.9020001,10.173,2.292,10.450081,0.207625,0.059125,0.1211375,-6.8953196,109.4101356,34.39999771118164,0.0,15.454,0.0
1776325439641,2.77305,9.591001,1.5850501,10.177121,0.207625,0.059125,0.1211375,-6.8953196,109.4101356,34.39999771118164,0.0,15.454,0.0
1776325439645,-1.233,10.81995,2.36805,10.951002,-0.1051875,-0.1153625,0.00825,-6.8953196,109.4101356,34.39999771118164,0.0,15.454,0.0
1776325439645,0.096,9.0400505,3.5269501,9.953545,-0.1051875,-0.1153625,0.00825,-6.8953196,109.4101356,34.39999771118164,0.0,15.454,0.0
1776325439652,2.4090002,8.877001,2.4430501,9.604293,-0.14465,0.0198,-0.1013375,-6.8953196,109.4101356,34.39999771118164,0.0,15.454,0.0
1776325439671,1.2210001,8.499001,2.33505,9.039345,0.02035,-0.20253749,-0.1332375,-6.8953196,109.4101356,34.39999771118164,0.0,15.454,0.0
1776325439672,-2.35305,10.000951,3.04095,10.379571,-0.0924,-0.2952125,0.043449998,-6.8953196,109.4101356,34.39999771118164,0.0,15.454,0.0
1776325439689,0.75705004,9.5140505,3.8389502,10.305727,0.1469875,0.0262625,-0.0045375,-6.8953196,109.4101356,34.39999771118164,0.0,15.454,0.0
1776325439704,4.122,9.261001,1.7190001,10.286452,-0.0169125,0.045375,0.1753125,-6.8953196,109.4101356,34.39999771118164,0.0,15.454,0.0
1776325439704,-0.31500003,10.56105,2.3730001,10.720449,0.05555,0.16775,0.00935,-6.8953196,109.4101356,34.39999771118164,0.0,15.454,0.0
1776325439728,-1.05495,9.988951,3.5629501,10.670254,0.1736625,-0.0143,-0.0045375,-6.8953196,109.4101356,34.39999771118164,0.0,15.454,0.0
1776325439728,3.1330502,8.278951,1.7820001,9.357681,0.1736625,-0.0143,-0.0045375,-6.8953196,109.4101356,34.39999771118164,0.0,15.454,0.0
1776325439732,1.33605,8.286,3.5130002,9.150393,0.1736625,-0.0143,-0.0045375,-6.8953196,109.4101356,34.39999771118164,0.0,15.454,0.0
1776325439742,-1.23,10.486951,1.932,10.417387,0.0171875,0.256025,0.091299996,-6.8953196,109.4101356,34.39999771118164,0.0,15.454,0.0
1776325439752,0.35700002,8.97105,4.21995,10.019832,0.054449998,-0.1164625,-0.0534875,-6.8953196,109.4101356,34.39999771118164,0.0,15.454,0.0
1776325439769,2.6149502,10.021951,1.029,10.330745,0.1065625,0.23265,0.0444125,-6.8953196,109.4101356,34.39999771118164,0.0,15.454,0.0
1776325439772,0.38805002,10.810051,1.63995,10.818646,-0.215875,-0.0334125,0.0891,-6.8953196,109.4101356,34.39999771118164,0.0,15.454,0.0
1776325439783,-0.591,9.555,4.7899504,10.727503,-0.054175,-0.020624999,0.0391875,-6.8953196,109.4101356,34.39999771118164,0.0,15.454,0.0
1776325439805,2.7250502,8.71695,1.64505,9.569454,-0.0946,-0.136675,0.001925,-6.8953196,109.4101356,34.39999771118164,0.0,15.454,0.0
1776325439805,1.9399501,9.009001,2.1739502,9.488651,-0.0935,-0.20047499,-0.128975,-6.8953196,109.4101356,34.39999771118164,0.0,15.454,0.0
1776325439813,-0.126,9.72795,3.3330002,10.124818,0.044825,0.0752125,-0.029975,-6.8953196,109.4101356,34.39999771118164,0.0,15.454,0.0
1776325439827,1.10595,9.2029505,2.493,9.703816,0.031075,0.0559625,0.1126125,-6.8953196,109.4101356,34.39999771118164,0.0,15.454,0.0
1776325439831,1.8700501,9.639001,3.6450002,10.319535,0.031075,0.0559625,0.1126125,-6.8953196,109.4101356,34.39999771118164,0.0,15.454,0.0
1776325439841,1.5970501,9.94095,1.82895,10.250456,0.1342,0.115637496,-0.08965,-6.8953196,109.4101356,34.39999771118164,0.0,15.454,0.0
1776325439857,-1.04295,10.125001,3.5350502,10.670067,-0.001925,-0.0334125,0.0221375,-6.8953196,109.4101356,34.39999771118164,0.0,15.454,0.0
1776325439861,1.7839501,8.632951,2.3130002,9.425007,-0.001925,-0.0334125,0.0221375,-6.8953196,109.4101356,34.39999771118164,0.0,15.454,0.0
1776325439871,2.46405,8.52795,2.7130501,9.310714,0.031075,0.0889625,-0.0204875,-6.8953196,109.4101356,34.39999771118164,0.0,15.454,0.0
1776325439896,-0.63900006,10.147051,2.6130002,10.260189,0.0385,0.0985875,0.1029875,-6.8953196,109.4101356,34.39999771118164,0.0,15.454,0.0
1776325439897,-0.49695003,8.83695,3.52305,9.673083,-0.01045,-0.1131625,-0.0375375,-6.8953196,109.4101356,34.39999771118164,0.0,15.454,0.0
1776325439901,1.38405,9.92895,2.59605,10.219124,0.069299996,0.0836,0.0444125,-6.8953196,109.4101356,34.39999771118164,0.0,15.454,0.0
1776325439923,1.3240501,10.222951,1.4490001,10.371569,-0.0169125,-0.054725,-0.0598125,-6.8953196,109.4101356,34.39999771118164,0.0,15.454,0.0
1776325439924,-0.126,10.147051,2.1340501,10.3701515,-0.1637625,-0.051425,0.00935,-6.8953196,109.4101356,34.39999771118164,0.0,15.454,0.0
1776325439931,0.58695,9.081,3.7549503,9.9494095,0.1651375,0.095425,0.0924,-6.8953196,109.4101356,34.39999771118164,0.0,15.454,0.0
1776325439956,2.7469501,8.95905,1.8510001,9.631307,-0.17435,0.0177375,-0.02585,-6.8953196,109.4101356,34.39999771118164,0.0,15.454,0.0
1776325439957,0.702,8.68305,3.2070003,9.352615,-0.17435,0.0177375,-0.02585,-6.8953196,109.4101356,34.39999771118164,0.0,15.454,0.0
1776325439962,-1.09605,9.838051,3.8410501,10.364935,0.0268125,0.24007499,0.017875,-6.8953196,109.4101356,34.39999771118164,0.0,15.454,0.0
1776325439976,2.42805,9.34395,2.9890501,10.158104,-9.625E-4,-0.0430375,-0.0512875,-6.8953196,109.4101356,34.39999771118164,0.0,15.454,0.0
1776325439982,2.8330503,9.550051,2.9980502,10.353849,-0.01375,-0.077,0.180675,-6.8953196,109.4101356,34.39999771118164,0.0,15.454,0.0
1776325440005,0.65895003,10.75695,-0.40395,10.698516,0.1161875,0.1868625,-0.0790625,-6.8953196,109.4101356,34.39999771118164,0.0,15.454,0.0
1776325440006,-1.9890001,9.26805,5.46,10.891005,0.22893749,0.036849998,0.131725,-6.8953196,109.4101356,34.39999771118164,0.0,15.454,0.0
1776325440013,2.3730001,8.65905,1.3620001,9.443034,-0.117975,0.060225,-0.0831875,-6.8953196,109.4101356,34.39999771118164,0.0,15.454,0.0
1776325440039,0.88095003,8.643001,3.252,9.309789,0.0363,0.191125,0.049775,-6.8953196,109.4101356,34.39999771118164,0.0,15.454,0.0
1776325440040,-1.3620001,10.317,3.3379502,10.604953,-0.0339625,-0.078099996,0.1945625,-6.8953196,109.4101356,34.39999771118164,0.0,15.454,0.0
1776325440045,1.40295,9.36795,1.6570501,9.814004,-0.0743875,-0.0919875,-0.0427625,-6.8953196,109.4101356,34.39999771118164,0.0,15.454,0.0
1776325440057,1.29795,9.667951,3.52005,10.259102,0.0352,0.010175,0.1370875,-6.8953196,109.4101356,34.39999771118164,0.0,15.454,0.0
1776325440071,1.2720001,10.410001,0.50295,10.451405,-0.17325,0.0644875,0.00935,-6.8953196,109.4101356,34.39999771118164,0.0,15.454,0.0
1776325440076,-0.93795,9.33705,4.37295,10.372618,-0.17325,0.0644875,0.00935,-6.8953196,109.4101356,34.39999771118164,0.0,15.454,0.0
1776325440085,0.63705003,8.563951,3.0010502,9.352035,-0.1062875,-0.0675125,0.1007875,-6.8953196,109.4101356,34.39999771118164,0.0,15.454,0.0
1776325440106,2.2150502,8.997001,2.25795,9.499857,0.011825,0.3007125,0.0551375,-6.8953196,109.4101356,34.39999771118164,0.0,15.454,0.0
1776325440107,0.55095005,9.273001,3.5269501,9.849068,0.08635,0.3125375,0.120037496,-6.8953196,109.4101356,34.39999771118164,0.0,15.454,0.0
1776325440116,-0.43695003,9.61695,2.69895,9.968253,-0.087175,-0.1238875,0.2253625,-6.8953196,109.4101356,34.39999771118164,0.0,15.454,0.0
1776325440126,1.3630501,10.021951,3.28305,10.50062,0.0374,0.27101249,0.130625,-6.8953196,109.4101356,34.39999771118164,0.0,15.454,0.0
1776325440156,2.9239502,9.64605,1.365,10.2373085,0.0479875,0.1049125,-0.0460625,-6.8953196,109.4101356,34.39999771118164,0.0,15.454,0.0
1776325440156,-0.93600005,10.005,2.4190502,10.31607,0.0479875,0.1049125,-0.0460625,-6.8953196,109.4101356,34.39999771118164,0.0,15.454,0.0
1776325440158,-0.98805004,8.583,4.3900504,9.816064,0.0479875,0.1049125,-0.0460625,-6.8953196,109.4101356,34.39999771118164,0.0,15.454,0.0
1776325440163,2.421,8.77005,2.4450002,9.49992,-0.2030875,0.043175,0.04235,-6.8953196,109.4101356,34.39999771118164,0.0,15.454,0.0
1776325440173,1.1020501,8.884951,2.7199502,9.38565,-0.1159125,0.0507375,-0.033275,-6.8953196,109.4101356,34.39999771118164,0.0,15.454,0.0
1776325440194,-1.3759501,10.2310505,3.3240001,10.5532255,0.0160875,0.207075,0.067925,-6.8953196,109.4101356,34.39999771118164,0.0,15.454,0.0
1776325440195,2.39505,9.913951,1.6140001,10.3715,0.010725,0.2805,0.1689875,-6.8953196,109.4101356,34.39999771118164,0.0,15.454,0.0
1776325440203,2.60595,9.844951,3.0649502,10.582478,-0.0540375,-0.0121,0.1689875,-6.8953196,109.4101356,34.39999771118164,0.0,15.454,0.0
1776325440214,1.3600501,10.273951,0.22695,10.409348,0.0427625,0.2847625,0.083875,-6.8953196,109.4101356,34.39999771118164,0.0,15.454,0.0
1776325440243,-1.41495,9.00405,6.3630004,10.974573,-0.1285625,0.190025,0.0391875,-6.8953196,109.4101356,34.39999771118164,0.0,15.454,0.0
1776325440243,2.63895,8.42205,1.0819501,9.308422,-0.1285625,0.190025,0.0391875,-6.8953196,109.4101356,34.39999771118164,0.0,15.454,0.0
1776325440249,0.82095003,8.620951,4.21005,9.564952,-0.013612499,-0.02695,0.1274625,-6.8953196,109.4101356,34.39999771118164,0.0,15.454,0.0
1776325440255,0.14400001,9.667951,3.3600001,10.101943,-0.01265,0.224125,0.0199375,-6.8953196,109.4101356,34.39999771118164,0.0,15.454,0.0
1776325440274,0.9990001,9.220051,2.87805,9.788652,-0.053075,0.274175,0.17105,-6.8953196,109.4101356,34.39999771118164,0.0,15.454,0.0
1776325440275,1.4110501,10.07505,3.62595,10.597923,-0.053075,0.274175,0.17105,-6.8953196,109.4101356,34.39999771118164,0.0,15.454,0.0
1776325440284,2.49105,9.74205,0.51495004,10.174519,0.0895125,0.238975,0.0391875,-6.8953196,109.4101356,34.39999771118164,0.0,15.454,0.0
1776325440309,-1.7209501,9.711,5.3760004,11.020815,-0.17325,0.1837,0.23925,-6.8953196,109.4101356,34.39999771118164,0.0,15.454,0.0
1776325440310,1.09905,8.566051,1.02705,9.161861,0.209825,0.1837,0.2083125,-6.8953196,109.4101356,34.39999771118164,0.0,15.454,0.0
1776325440315,0.30600002,8.547,5.17995,9.831442,-0.0605,0.2847625,0.20625,-6.8953196,109.4101356,34.39999771118164,0.0,15.454,0.0
1776325440326,1.54005,9.29205,1.79295,9.636642,-0.069025,0.1293875,0.0583,-6.8953196,109.4101356,34.39999771118164,0.0,15.454,0.0
1776325440335,-0.73905003,8.86095,3.4030502,9.543875,-0.014712499,0.1942875,0.358325,-6.8953196,109.4101356,34.39999771118164,0.0,15.454,0.0
1776325440358,1.0510501,10.67805,2.91195,10.802996,0.0661375,0.3986125,0.2913625,-6.8953196,109.4101356,34.39999771118164,0.0,15.454,0.0
1776325440363,5.0610003,9.306001,0.45000002,10.642784,-0.0264,0.208175,0.165825,-6.8953196,109.4101356,34.39999771118164,0.0,15.454,0.0
1776325440371,-1.60395,9.58905,5.6850004,11.138482,-0.2008875,0.4316125,0.2233,-6.8953196,109.4101356,34.39999771118164,0.0,15.454,0.0
1776325440394,-0.40395,9.27,2.3710501,9.8892565,0.0991375,0.550825,0.360525,-6.8953196,109.4101356,34.39999771118164,0.0,15.454,0.0
1776325440394,2.4720001,8.154,3.28305,9.282729,0.0991375,0.550825,0.360525,-6.8953196,109.4101356,34.39999771118164,0.0,15.454,0.0
1776325440400,0.87405,7.9360504,3.9850502,8.995194,0.1491875,0.23265,0.3254625,-6.8953196,109.4101356,34.39999771118164,0.0,15.454,0.0
1776325440423,-1.245,10.041,2.22195,10.086235,0.0416625,0.648725,0.3966875,-6.8953196,109.4101356,34.39999771118164,0.0,15.454,0.0
1776325440425,1.6639501,9.483001,2.9929502,10.083127,0.0108624995,0.5487625,0.392425,-6.8953196,109.4101356,34.39999771118164,0.0,15.454,0.0
1776325440430,3.3430502,9.696,2.7439501,10.510112,0.093775,0.36781248,0.2327875,-6.8953196,109.4101356,34.39999771118164,0.0,15.454,0.0
1776325440436,1.2240001,10.465051,0.37095,10.536355,-0.0540375,0.68282497,0.2552,-6.8953196,109.4101356,34.39999771118164,0.0,15.454,0.0
1776325440458,-2.4109502,9.59805,6.9810004,11.79585,0.02365,0.3454,0.36795,-6.8953196,109.4101356,34.39999771118164,0.0,15.454,0.0
1776325440459,3.7909503,8.38605,-1.01505,9.7663,-0.2371875,0.5764,0.2179375,-6.8953196,109.4101356,34.39999771118164,0.0,15.454,0.0
1776325440466,0.061950002,7.42605,6.2749505,9.73118,0.144925,0.6147625,0.555225,-6.8953196,109.4101356,34.39999771118164,0.0,15.454,0.0
1776325440476,-0.73695004,9.529051,1.8750001,9.7379875,0.02255,0.7434625,0.2998875,-6.8953196,109.4101356,34.39999771118164,0.0,15.454,0.0
1776325440491,1.2,9.639001,4.84695,10.632049,0.0193875,0.4753375,0.6351125,-6.8953196,109.4101356,34.39999771118164,0.0,15.454,0.0
1776325440497,6.1380005,9.15795,0.45900002,10.953777,-0.2127125,0.4827625,0.261525,-6.8953196,109.4101356,34.39999771118164,0.0,15.454,0.0
1776325440506,0.012,11.06595,4.572,11.769352,0.05335,0.5539875,0.5765375,-6.8953196,109.4101356,34.39999771118164,0.0,15.454,0.0
1776325440529,0.29895002,9.49005,1.49205,10.042892,-0.1137125,0.3529625,0.43505,-6.8953196,109.4101356,34.39999771118164,0.0,15.454,0.0
1776325440530,1.9729501,7.54995,4.3320003,9.148798,-0.1137125,0.3529625,0.43505,-6.8953196,109.4101356,34.39999771118164,0.0,15.454,0.0
1776325440536,0.44805002,8.128051,3.5269501,8.927042,0.194975,0.713625,0.37015,-6.8953196,109.4101356,34.39999771118164,0.0,15.454,0.0
1776325440547,-0.83505005,9.282001,4.485,10.059438,-0.2882,0.30827498,0.557425,-6.8953196,109.4101356,34.39999771118164,0.0,15.454,0.0
1776325440578,4.9429502,8.643001,0.99105006,10.016542,0.176825,0.469975,0.5924875,-6.8953196,109.4101356,34.39999771118164,0.0,15.454,0.0
1776325440579,2.22,11.280001,3.5800502,11.636039,0.176825,0.469975,0.5924875,-6.8953196,109.4101356,34.39999771118164,0.0,15.454,0.0
1776325440579,2.52705,10.345051,0.91905004,10.878258,-0.14025,0.39655,0.4541625,-6.8953196,109.4101356,34.39999771118164,0.0,15.454,0.0
1776325440588,3.41805,8.899051,3.7840502,10.380829,-0.1243,0.6700375,0.5467,-6.8953196,109.4101356,34.39999771118164,0.0,15.454,0.0
1776325440607,1.7149501,7.83795,2.9959502,8.927746,0.209825,0.64556247,0.1530375,-6.8953196,109.4101356,34.39999771118164,0.0,15.454,0.0
1776325440608,-2.0299501,10.398001,5.6779504,11.401477,-0.2574,0.1145375,0.3328875,-6.8953196,109.4101356,34.39999771118164,0.0,15.454,0.0
1776325440618,7.8460503,8.178,0.177,11.347918,-0.2690875,0.1507,0.1700875,-6.8953196,109.4101356,34.39999771118164,0.0,15.454,0.0
1776325440629,3.4030502,8.98005,3.4650002,10.436964,-0.2360875,0.406175,0.0891,-6.8953196,109.4101356,34.39999771118164,0.0,15.454,0.0
1776325440637,1.5660001,12.313951,0.9670501,12.047985,0.0735625,0.257125,-0.02365,-6.8953196,109.4101356,34.39999771118164,0.0,15.454,0.0
1776325440668,6.6720004,8.443951,0.984,11.0549345,-0.133925,-0.0589875,0.154,-6.8953196,109.4101356,34.39999771118164,0.0,15.454,0.0
1776325440668,0.333,10.242001,5.7670503,11.617991,0.093775,-0.19415,0.122099996,-6.8953196,109.4101356,34.39999771118164,0.0,15.454,0.0
1776325440669,2.87595,10.222951,2.6869502,11.087143,0.093775,-0.19415,0.122099996,-6.8953196,109.4101356,34.39999771118164,0.0,15.454,0.0
1776325440678,4.88805,7.7830505,1.21605,9.634068,-0.0903375,-0.0994125,0.0125124995,-6.8953196,109.4101356,34.39999771118164,0.0,15.454,0.0
1776325440699,0.20805001,9.77295,5.6020503,10.940112,-0.0903375,-0.0994125,0.0125124995,-6.8953196,109.4101356,34.39999771118164,0.0,15.454,0.0
1776325440702,4.644,8.68605,-0.99105006,10.107472,0.1375,-0.2761,0.115775,-6.8953196,109.4101356,34.39999771118164,0.0,15.454,0.0
1776325440708,-0.35595003,9.5460005,6.2509503,11.154371,-0.033825,-0.104637496,-0.243925,-6.8953196,109.4101356,34.39999771118164,0.0,15.454,0.0
1776325440734,2.6509502,9.831,4.8019505,11.2369995,0.0928125,0.3603875,-0.2407625,-6.8953196,109.4101356,34.39999771118164,0.0,15.454,0.0
1776325440734,5.5729504,8.65905,-0.85695004,10.513816,0.062975,0.092125,-0.0748,-6.8953196,109.4101356,34.39999771118164,0.0,15.454,0.0
1776325440739,-1.43595,9.814051,5.99205,11.373179,0.062975,0.092125,-0.0748,-6.8953196,109.4101356,34.39999771118164,0.0,15.454,0.0
1776325440783,2.97,9.01095,0.42105,9.872336,-0.131725,0.06875,-0.28765,-6.8953196,109.4101356,34.39999771118164,0.0,15.454,0.0
1776325440783,0.36900002,8.346001,6.91905,10.652353,-0.131725,0.06875,-0.28765,-6.8953196,109.4101356,34.39999771118164,0.0,15.454,0.0
1776325440783,1.32,9.232051,0.97200006,9.631637,-0.131725,0.06875,-0.28765,-6.8953196,109.4101356,34.39999771118164,0.0,15.454,0.0
1776325440786,1.8390001,10.41705,3.1420503,10.75426,-0.131725,0.06875,-0.28765,-6.8953196,109.4101356,34.39999771118164,0.0,15.454,0.0
1776325440789,3.6450002,8.335951,0.91005003,9.465595,-0.013612499,-0.3430625,0.1093125,-6.8953196,109.4101356,34.39999771118164,0.0,15.454,0.0
1776325440814,-1.09395,10.2310505,5.0820003,11.073894,-0.2179375,-0.3069,-0.131175,-6.8953196,109.4101356,34.39999771118164,0.0,15.454,0.0
1776325440815,3.042,9.379951,1.5300001,10.197886,-0.2179375,-0.3069,-0.131175,-6.8953196,109.4101356,34.39999771118164,0.0,15.454,0.0
1776325440819,2.2339501,9.085951,5.3479505,10.661247,-0.2179375,-0.3069,-0.131175,-6.8953196,109.4101356,34.39999771118164,0.0,15.454,0.0
1776325440842,2.97405,9.184051,-2.2459502,10.061378,-0.1934625,-0.1898875,0.1445125,-6.8953196,109.4101356,34.39999771118164,0.0,15.454,0.0
1776325440842,-0.19605,9.526051,4.7320504,10.523026,-0.020075,-0.108899996,0.312675,-6.8953196,109.4101356,34.39999771118164,0.0,15.454,0.0
1776325440852,2.325,9.094951,2.352,9.846674,0.014025,-0.0132,-0.180125,-6.8953196,109.4101356,34.39999771118164,0.0,15.454,0.0
1776325440877,0.726,10.542001,5.7570004,11.596094,-0.00825,-0.3293125,-0.1056,-6.8953196,109.4101356,34.39999771118164,0.0,15.454,0.0
1776325440878,5.2309504,8.793,-2.5810502,10.760698,-0.0253,0.1794375,-0.05555,-6.8953196,109.4101356,34.39999771118164,0.0,15.454,0.0
1776325440882,0.453,9.712951,4.1119504,10.59791,-0.0253,0.1794375,-0.05555,-6.8953196,109.4101356,34.39999771118164,0.0,15.454,0.0
1776325440898,1.02495,9.60105,0.67305005,9.862808,-0.2509375,-0.061049998,0.096525,-6.8953196,109.4101356,34.39999771118164,0.0,15.454,0.0
1776325440903,-0.31500003,9.997951,8.787001,12.623974,-0.2509375,-0.061049998,0.096525,-6.8953196,109.4101356,34.39999771118164,0.0,15.454,0.0
1776325440932,6.399,7.5100503,-2.22705,10.616581,0.102437496,-0.1535875,0.3169375,-6.8953196,109.4101356,34.39999771118164,0.0,15.454,0.0
1776325440932,2.21805,9.694051,2.0640001,10.248514,0.102437496,-0.1535875,0.3169375,-6.8953196,109.4101356,34.39999771118164,0.0,15.454,0.0
1776325440935,2.32995,9.534,-0.61695004,9.916859,-0.311575,0.2432375,-0.2503875,-6.8953196,109.4101356,34.39999771118164,0.0,15.454,0.0
1776325440943,-4.3699503,11.524051,8.986051,14.185649,0.5025625,-0.593175,0.2105125,-6.8953196,109.4101356,34.39999771118164,0.0,15.454,0.0
1776325440970,7.6830006,7.0399504,0.094950005,11.173975,0.0182875,0.3284875,-0.21835,-6.8953196,109.4101356,34.39999771118164,0.0,15.454,0.0
1776325440971,6.6940503,8.99505,2.29395,11.390636,0.35035,-0.02695,-0.440825,-6.8953196,109.4101356,34.39999771118164,0.0,15.454,0.0
1776325440975,-3.4960501,12.561001,-0.89505005,12.733434,0.35035,-0.02695,-0.440825,-6.8953196,109.4101356,34.39999771118164,0.0,15.454,0.0
1776325441006,-6.6240005,10.111051,6.6940503,13.600622,0.2641375,-0.593175,0.491425,-6.8953196,109.4101356,34.39999771118164,0.0,15.454,0.0
1776325441007,15.7879505,5.33505,-0.11895001,16.052464,-0.0605,0.3592875,-0.1428625,-6.8953196,109.4101356,34.39999771118164,0.0,15.454,0.0
1776325441007,5.6740503,7.73295,5.0080504,11.8665495,0.208725,-0.0143,-0.3620375,-6.8953196,109.4101356,34.39999771118164,0.0,15.454,0.0
1776325441037,-14.901001,17.052,-0.282,20.49097,-0.196625,-0.133375,0.0594,-6.8953196,109.4101356,34.39999771118164,0.0,15.454,0.0
1776325441038,6.945,4.248,4.656,11.601021,0.35035,0.23375,-0.2715625,-6.8953196,109.4101356,34.39999771118164,0.0,15.454,0.0
1776325441038,20.809952,3.89595,4.7320504,19.675316,0.35035,0.23375,-0.2715625,-6.8953196,109.4101356,34.39999771118164,0.0,15.454,0.0
1776325441043,-8.41005,14.946001,-1.3909501,17.69987,0.50888747,0.3837625,-0.947375,-6.8953196,109.4101356,34.39999771118164,0.0,15.454,0.0
1776325441070,-18.084002,15.555,7.2349505,23.481226,-0.3328875,-0.151525,-0.014025,-6.8953196,109.4101356,34.39999771118164,0.0,15.454,0.0
1776325441072,26.640001,-1.42005,2.7280502,26.149801,0.4046625,1.0488499,-0.685575,-6.8953196,109.4101356,34.39999771118164,0.0,15.454,0.0
1776325441072,10.401,6.6790504,3.3000002,15.464975,0.4046625,1.0488499,-0.685575,-6.8953196,109.4101356,34.39999771118164,0.0,15.454,0.0
1776325441081,-25.831951,19.462952,-1.36695,28.990822,0.0939125,0.2187625,-0.4120875,-6.8953196,109.4101356,34.39999771118164,0.0,15.454,0.0
1776325441091,1.1329501,5.946,7.9080005,13.765095,-0.6457,-0.73039997,1.0415624,-6.8953196,109.4101356,34.39999771118164,0.0,15.454,0.0
1776325441112,30.112051,-0.19605,5.5939503,27.255314,0.2365,0.340175,-0.5451875,-6.8953196,109.4101356,34.39999771118164,0.0,15.454,0.0
1776325441113,-8.298,13.417951,0.55305004,18.08002,0.2365,0.340175,-0.5451875,-6.8953196,109.4101356,34.39999771118164,0.0,15.454,0.0
1776325441123,-24.091051,16.37895,2.02605,26.97756,-0.3158375,-0.2844875,0.2871,-6.8953196,109.4101356,34.39999771118164,0.0,15.454,0.0
1776325441147,21.25995,2.499,1.2910501,22.551685,-0.0699875,-0.0801625,-0.031075,-6.8953196,109.4101356,34.39999771118164,0.0,15.454,0.0
1776325441164,15.565051,3.9,7.1800504,18.573826,-0.0529375,-0.23127499,0.23705,-6.8953196,109.4101356,34.39999771118164,0.0,15.454,0.0
1776325441165,-19.07505,18.34995,2.16,24.959908,-0.0529375,-0.23127499,0.23705,-6.8953196,109.4101356,34.39999771118164,0.0,15.454,0.0
1776325441165,-0.109050006,8.38395,2.9170501,12.094057,-0.0529375,-0.23127499,0.23705,-6.8953196,109.4101356,34.39999771118164,0.0,15.454,0.0
1776325441176,15.649051,3.3280501,7.9680004,16.717516,0.5737875,0.0485375,-0.35145,-6.8953196,109.4101356,34.39999771118164,0.0,15.454,0.0
1776325441208,-2.8560002,12.55605,2.2009501,13.794312,0.0012375,-0.0248875,-0.2481875,-6.8953196,109.4101356,34.39999771118164,0.0,15.454,0.0
1776325441209,-5.36205,11.16495,4.06605,13.187759,-0.1296625,0.3507625,-0.081125,-6.8953196,109.4101356,34.39999771118164,0.0,15.454,0.0
1776325441209,6.222,5.4360003,3.6760502,9.871991,-0.1296625,0.3507625,-0.081125,-6.8953196,109.4101356,34.39999771118164,0.0,15.454,0.0
1776325441229,0.132,12.661051,4.87605,12.828942,-0.5159,0.259325,-0.056649998,-6.8953196,109.4101356,34.39999771118164,0.0,15.454,0.0
1776325441234,5.013,7.9150505,-0.74205005,10.084462,-0.5159,0.259325,-0.056649998,-6.8953196,109.4101356,34.39999771118164,0.0,15.454,0.0
1776325441235,-4.044,7.2730503,12.607051,14.101631,0.3141875,-0.086625,-0.3355,-6.8953196,109.4101356,34.39999771118164,0.0,15.454,0.0
1776325441243,2.4880502,12.304951,-4.65495,13.531691,-0.082775,-0.4090625,0.0231,-6.8953196,109.4101356,34.39999771118164,0.0,15.454,0.0
1776325441263,4.36095,4.6600504,9.117001,11.609503,0.472725,0.1145375,-0.0427625,-6.8953196,109.4101356,34.39999771118164,0.0,15.454,0.0
1776325441264,1.5829501,10.798051,1.45605,11.130032,0.472725,0.1145375,-0.0427625,-6.8953196,109.4101356,34.39999771118164,0.0,15.454,0.0
1776325441272,-0.47805002,10.153951,0.54795,10.369971,-0.3531,0.26565,0.0369875,-6.8953196,109.4101356,34.39999771118164,0.0,15.454,0.0
1776325441283,0.064950004,8.014951,7.8169503,11.030722,0.342925,0.046475,0.2189,-6.8953196,109.4101356,34.39999771118164,0.0,15.454,0.0
1776325441295,5.4250503,9.19095,-0.64605004,10.759866,-0.116875,0.39765,-0.02475,-6.8953196,109.4101356,34.39999771118164,0.0,15.454,0.0
1776325441310,0.13395001,9.1050005,7.6129503,11.647268,0.4695625,0.06985,0.0891,-6.8953196,109.4101356,34.39999771118164,0.0,15.454,0.0
1776325441314,3.1920002,10.666051,-3.31605,11.622882,-0.0231,-0.19195,-0.1610125,-6.8953196,109.4101356,34.39999771118164,0.0,15.454,0.0
1776325441323,-2.5930502,8.38605,8.986051,12.374018,-0.33605,-0.0100375,-0.2396625,-6.8953196,109.4101356,34.39999771118164,0.0,15.454,0.0
1776325441342,3.8700001,9.679951,1.00605,10.853462,-0.1593625,0.4349125,-0.197175,-6.8953196,109.4101356,34.39999771118164,0.0,15.454,0.0
1776325441344,3.8560503,7.3489504,1.26405,8.886597,-0.1593625,0.4349125,-0.197175,-6.8953196,109.4101356,34.39999771118164,0.0,15.454,0.0
1776325441353,-5.24205,11.265,7.8550506,13.537078,0.3939375,-0.1216875,-0.073699996,-6.8953196,109.4101356,34.39999771118164,0.0,15.454,0.0
1776325441364,7.1710505,11.04705,-5.72805,14.197149,-0.2924625,-0.266475,0.121,-6.8953196,109.4101356,34.39999771118164,0.0,15.454,0.0
1776325441373,0.49095002,5.136,10.252951,12.021762,-0.1337875,0.2294875,-0.259875,-6.8953196,109.4101356,34.39999771118164,0.0,15.454,0.0
1776325441399,-4.41795,13.252951,0.41895002,13.585322,0.587675,-0.09515,0.117837496,-6.8953196,109.4101356,34.39999771118164,0.0,15.454,0.0
1776325441399,4.368,8.743051,-1.28805,10.603435,0.210925,-0.134475,-0.0864875,-6.8953196,109.4101356,34.39999771118164,0.0,15.454,0.0
1776325441404,-0.058950003,5.6010003,13.588951,13.879169,0.210925,-0.134475,-0.0864875,-6.8953196,109.4101356,34.39999771118164,0.0,15.454,0.0
1776325441428,3.5089502,14.724001,-9.582001,17.107307,0.230175,-0.0823625,0.194425,-6.8953196,109.4101356,34.39999771118164,0.0,15.454,0.0
1776325441428,-1.0819501,6.4510503,7.635,11.464542,0.230175,-0.0823625,0.194425,-6.8953196,109.4101356,34.39999771118164,0.0,15.454,0.0
1776325441437,-1.4790001,8.7619505,9.24705,12.552489,0.2226125,-0.0897875,0.30621248,-6.8953196,109.4101356,34.39999771118164,0.0,15.454,0.0
1776325441461,7.70205,12.075001,-8.44905,15.813458,-0.7244875,-0.0143,-0.2833875,-6.8953196,109.4101356,34.39999771118164,0.0,15.454,0.0
1776325441463,-3.6109502,4.55205,14.467951,15.635555,0.627,-0.30153748,-0.12155,-6.8953196,109.4101356,34.39999771118164,0.0,15.454,0.0
1776325441467,-0.24795002,12.85305,-2.0659502,13.543423,0.6653625,0.062425,0.327525,-6.8953196,109.4101356,34.39999771118164,0.0,15.454,0.0
1776325441477,6.636,10.729051,-3.8580003,13.262416,0.0694375,0.3444375,0.098725,-6.8953196,109.4101356,34.39999771118164,0.0,15.454,0.0
1776325441493,-2.5429502,4.7389503,14.635951,15.12672,0.115225,0.0719125,0.394625,-6.8953196,109.4101356,34.39999771118164,0.0,15.454,0.0
1776325441499,0.25395,13.333951,-4.677,14.3315,-0.7404375,-0.232375,-0.12375,-6.8953196,109.4101356,34.39999771118164,0.0,15.454,0.0
1776325441507,3.7219503,7.3879504,3.86805,10.172037,-0.2583625,0.3496625,-0.0609125,-6.8953196,109.4101356,34.39999771118164,0.0,15.454,0.0
1776325441518,-1.6660501,6.1540504,11.941051,12.863605,0.6260375,-0.09295,-0.05555,-6.8953196,109.4101356,34.39999771118164,0.0,15.454,0.0
1776325441528,3.70005,15.27,-10.02495,17.48286,-0.2105125,-0.12595,0.26785,-6.8953196,109.4101356,34.39999771118164,0.0,15.454,0.0
1776325441544,3.3720002,6.537,7.1250005,11.688994,0.295075,-0.100375,0.00825,-6.8953196,109.4101356,34.39999771118164,0.0,15.454,0.0
1776325441548,-1.812,8.10105,8.361,11.763438,0.3141875,-0.234575,-0.2481875,-6.8953196,109.4101356,34.39999771118164,0.0,15.454,0.0
1776325441558,1.22895,12.714001,-4.5019503,13.1874075,-0.49774998,-0.22715,0.230725,-6.8953196,109.4101356,34.39999771118164,0.0,15.454,0.0
1776325441577,3.62595,5.3089504,10.70505,12.6272545,0.295075,0.4338125,0.04235,-6.8953196,109.4101356,34.39999771118164,0.0,15.454,0.0
1776325441578,1.011,9.747001,0.25305,10.367499,0.35035,-0.0473,-0.049225,-6.8953196,109.4101356,34.39999771118164,0.0,15.454,0.0
1776325441588,-1.077,12.472051,-1.1659501,12.131616,-0.5754375,-0.052525,0.20515,-6.8953196,109.4101356,34.39999771118164,0.0,15.454,0.0
1776325441598,5.53695,5.1340504,7.4269505,10.899372,0.44935,0.19965,0.0625625,-6.8953196,109.4101356,34.39999771118164,0.0,15.454,0.0
1776325441608,-0.069000006,11.6320505,1.21395,11.536217,0.08745,0.3199625,0.099825,-6.8953196,109.4101356,34.39999771118164,0.0,15.454,0.0
1776325441630,-1.125,10.9800005,3.6070502,11.596786,-0.2668875,-0.5091625,0.194425,-6.8953196,109.4101356,34.39999771118164,0.0,15.454,0.0
1776325441631,7.0650005,6.5659504,3.9799502,10.666465,-0.016775,0.0198,-0.1747625,-6.8953196,109.4101356,34.39999771118164,0.0,15.454,0.0
1776325441644,0.282,11.373,-1.338,11.297219,-0.016775,0.0198,-0.1747625,-6.8953196,109.4101356,34.39999771118164,0.0,15.454,0.0
1776325441654,-3.0700502,9.76605,5.97795,11.743303,0.1354375,0.2187625,0.0583,-6.8953196,109.4101356,34.39999771118164,0.0,15.454,0.0
1776325441656,7.25895,6.4099503,0.51495004,10.106805,0.1354375,0.2187625,0.0583,-6.8953196,109.4101356,34.39999771118164,0.0,15.454,0.0
1776325441666,-1.5370501,10.353001,5.2969503,11.405768,0.0193875,0.00495,0.0848375,-6.8953196,109.4101356,34.39999771118164,0.0,15.454,0.0
1776325441676,0.46500003,11.052001,1.98705,11.272219,-0.0540375,-0.0759,0.041249998,-6.8953196,109.4101356,34.39999771118164,0.0,15.454,0.0
1776325441706,6.45195,7.3159504,1.5079501,10.15076,-0.1348875,-0.0664125,-0.0545875,-6.8953196,109.4101356,34.39999771118164,0.0,15.454,0.0
1776325441707,-0.64095,11.502001,2.196,11.411982,-0.01045,-0.004675,0.1104125,-6.8953196,109.4101356,34.39999771118164,0.0,15.454,0.0
1776325441707,0.642,9.534,2.22,10.130463,-0.01045,-0.004675,0.1104125,-6.8953196,109.4101356,34.39999771118164,0.0,15.454,0.0
1776325441748,2.1990001,8.037001,5.3260503,9.937433,-0.0455125,-0.0675125,0.1860375,-6.8953196,109.4101356,34.39999771118164,0.0,15.454,0.0
1776325441748,1.5330001,10.233001,1.0129501,10.3048115,-0.0455125,-0.0675125,0.1860375,-6.8953196,109.4101356,34.39999771118164,0.0,15.454,0.0
1776325441749,1.93305,8.736,3.7600503,9.825182,0.16733749,0.1890625,0.2552,-6.8953196,109.4101356,34.39999771118164,0.0,15.454,0.0
1776325441749,1.473,9.09,1.5109501,9.430405,-0.0688875,0.2699125,-0.0939125,-6.8953196,109.4101356,34.39999771118164,0.0,15.454,0.0
1776325441759,-0.41805002,10.28295,2.80695,10.419977,-0.0306625,0.0996875,0.358325,-6.8953196,109.4101356,34.39999771118164,0.0,15.454,0.0
1776325441781,2.5189502,9.241051,3.5040002,10.2432165,0.12375,0.2624875,-0.001375,-6.8953196,109.4101356,34.39999771118164,0.0,15.454,0.0
1776325441781,2.56695,8.809951,1.6639501,9.5093975,0.12375,0.2624875,-0.001375,-6.8953196,109.4101356,34.39999771118164,0.0,15.454,0.0
1776325441790,-0.84000003,10.10595,2.4379501,10.24567,0.1524875,-0.1876875,0.325325,-6.8953196,109.4101356,34.39999771118164,0.0,15.454,0.0
1776325441821,2.6560502,8.587951,1.779,9.380049,0.100237496,0.3741375,-0.165275,-6.8953196,109.4101356,34.39999771118164,0.0,15.454,0.0
1776325441829,-2.5879502,8.973001,-2.1979501,9.551142,-0.4307875,-0.12595,-0.0045375,-6.8953196,109.4101356,34.39999771118164,0.0,15.454,0.0
1776325441846,10.258051,9.1380005,-2.742,13.117347,0.328075,0.06875,0.3796375,-6.8953196,109.4101356,34.39999771118164,0.0,15.454,0.0
1776325441847,-0.96000004,10.939051,2.742,11.678077,-0.0551375,0.03575,0.312675,-6.8953196,109.4101356,34.39999771118164,0.0,15.454,0.0
1776325441848,-0.24300002,8.872951,6.8299503,11.295491,-0.0551375,0.03575,0.312675,-6.8953196,109.4101356,34.39999771118164,0.0,15.454,0.0
1776325441848,4.9740005,8.80305,-0.41895002,10.35492,-0.0551375,0.03575,0.312675,-6.8953196,109.4101356,34.39999771118164,0.0,15.454,0.0
1776325441853,0.89595,10.753051,-1.21395,10.757691,-0.001925,-0.22605,-0.0853875,-6.8953196,109.4101356,34.39999771118164,0.0,15.454,0.0
1776325441858,1.06605,8.24505,3.8890502,9.494215,-0.04235,0.3496625,0.230725,-6.8953196,109.4101356,34.39999771118164,0.0,15.454,0.0
1776325441863,-0.246,12.420001,14.266951,17.032654,-0.2657875,0.076175,0.1093125,-6.8953196,109.4101356,34.39999771118164,0.0,15.454,0.0
1776325441878,0.109950006,8.286,-7.5769506,12.389362,-0.3477375,-0.0185625,-0.097075,-6.8953196,109.4101356,34.39999771118164,0.0,15.454,0.0
1776325441878,14.578051,6.8100004,-4.8949504,15.932536,-0.3477375,-0.0185625,-0.097075,-6.8953196,109.4101356,34.39999771118164,0.0,15.454,0.0
1776325441882,-2.2720501,10.410001,6.30105,13.08951,-0.3477375,-0.0185625,-0.097075,-6.8953196,109.4101356,34.39999771118164,0.0,15.454,0.0
1776325441888,-2.7130501,10.8820505,10.939951,15.151688,-0.2552,0.2795375,-0.097075,-6.8953196,109.4101356,34.39999771118164,0.0,15.454,0.0
1776325441895,7.5469503,7.4430003,-7.8220506,13.569079,0.0715,-0.1887875,-0.016224999,-6.8953196,109.4101356,34.39999771118164,0.0,15.454,0.0
1776325441897,3.0250502,12.958051,-2.4540002,13.538503,0.0715,-0.1887875,-0.016224999,-6.8953196,109.4101356,34.39999771118164,0.0,15.454,0.0
1776325441914,-6.7840505,14.019001,13.45695,19.173817,-0.328625,0.23375,-0.1056,-6.8953196,109.4101356,34.39999771118164,0.0,15.454,0.0
1776325441914,1.8199501,7.2700505,7.6920004,12.426209,-0.1753125,-0.2739,0.14025,-6.8953196,109.4101356,34.39999771118164,0.0,15.454,0.0
1776325441915,13.57995,2.43495,-15.29205,18.961956,-0.1753125,-0.2739,0.14025,-6.8953196,109.4101356,34.39999771118164,0.0,15.454,0.0
1776325441921,11.106001,12.41205,-1.00995,17.141184,-0.1753125,-0.2739,0.14025,-6.8953196,109.4101356,34.39999771118164,0.0,15.454,0.0
1776325441923,-5.29005,9.129001,7.563,13.813527,-0.00825,0.468875,-0.213125,-6.8953196,109.4101356,34.39999771118164,0.0,15.454,0.0
1776325441925,3.6499503,8.07705,5.3170505,11.031467,-0.00825,0.468875,-0.213125,-6.8953196,109.4101356,34.39999771118164,0.0,15.454,0.0
1776325441932,2.5480502,11.79405,-6.8110504,13.290916,0.3355,-0.2781625,-0.130075,-6.8953196,109.4101356,34.39999771118164,0.0,15.454,0.0
1776325441933,-14.329051,18.165,6.117,21.803217,-0.3254625,-0.0015125,-0.02365,-6.8953196,109.4101356,34.39999771118164,0.0,15.454,0.0
1776325441940,-8.05395,10.55895,9.56805,17.45489,-0.3892625,-0.3345375,0.4530625,-6.8953196,109.4101356,34.39999771118164,0.0,15.454,0.0
1776325441943,16.73895,-0.9480001,-5.8699503,17.701902,-0.04015,-0.380325,0.7712375,-6.8953196,109.4101356,34.39999771118164,0.0,15.454,0.0
1776325441949,14.467951,9.948001,3.7840502,17.90931,-0.1274625,-0.2803625,0.4158,-6.8953196,109.4101356,34.39999771118164,0.0,15.454,0.0
1776325441978,6.7159505,9.547951,5.688,13.970184,-0.46695,-0.7038625,0.9948125,-6.8953196,109.4101356,34.39999771118164,0.0,15.454,0.0
1776325441979,12.432,3.1240501,-1.9080001,13.161826,-0.46695,-0.7038625,0.9948125,-6.8953196,109.4101356,34.39999771118164,0.0,15.454,0.0
1776325441979,-6.111,14.73795,-4.65105,15.927388,-0.46695,-0.7038625,0.9948125,-6.8953196,109.4101356,34.39999771118164,0.0,15.454,0.0
1776325441979,-28.39005,23.55195,6.64095,33.169918,-0.46695,-0.7038625,0.9948125,-6.8953196,109.4101356,34.39999771118164,0.0,15.454,0.0
1776325441979,-18.960001,13.02105,4.1530504,25.332043,-0.46695,-0.7038625,0.9948125,-6.8953196,109.4101356,34.39999771118164,0.0,15.454,0.0
1776325441984,15.682051,1.1869501,0.97200006,17.67194,-0.46695,-0.7038625,0.9948125,-6.8953196,109.4101356,34.39999771118164,0.0,15.454,0.0
1776325441985,25.701002,2.80395,8.380051,25.276571,-0.46695,-0.7038625,0.9948125,-6.8953196,109.4101356,34.39999771118164,0.0,15.454,0.0
1776325442002,22.55895,1.1890501,8.707951,24.42372,-0.34141248,-0.3760625,1.077725,-6.8953196,109.4101356,34.39999771118164,0.0,15.454,0.0
1776325442004,15.832951,1.9369501,-1.6180501,17.711021,0.74195,0.6105,-0.7495125,-6.8953196,109.4101356,34.39999771118164,0.0,15.454,0.0
1776325442007,-12.43395,19.449001,-6.3130503,22.687483,0.41525,1.1308,-0.799425,-6.8953196,109.4101356,34.39999771118164,0.0,15.454,0.0
1776325442008,-36.37905,27.397951,-0.30405003,40.971992,0.41525,1.1308,-0.799425,-6.8953196,109.4101356,34.39999771118164,0.0,15.454,0.0
1776325442011,-23.359951,12.867001,-10.2619505,31.054735,0.064075,0.0996875,-0.1408,-6.8953196,109.4101356,34.39999771118164,0.0,15.454,0.0
1776325442014,14.824951,1.77795,6.09495,19.112759,-0.8234875,-0.7453875,1.032075,-6.8953196,109.4101356,34.39999771118164,0.0,15.454,0.0
1776325442038,28.062002,-0.75000006,24.87705,33.82955,-0.9629125,-0.365475,1.3853124,-6.8953196,109.4101356,34.39999771118164,0.0,15.454,0.0
1776325442039,27.532951,-4.4599504,15.14805,32.15779,0.9761125,1.4320625,-1.0432125,-6.8953196,109.4101356,34.39999771118164,0.0,15.454,0.0
1776325442039,22.91295,3.7900503,-9.951,26.644667,0.9761125,1.4320625,-1.0432125,-6.8953196,109.4101356,34.39999771118164,0.0,15.454,0.0
1776325442044,-11.03505,24.330002,-16.16295,30.308443,0.9761125,1.4320625,-1.0432125,-6.8953196,109.4101356,34.39999771118164,0.0,15.454,0.0
1776325442048,-42.81195,26.835001,-3.7930503,46.597046,0.0353375,1.1213125,-0.8941625,-6.8953196,109.4101356,34.39999771118164,0.0,15.454,0.0
1776325442052,-26.602951,12.05595,-4.6909504,32.984646,-0.87023747,-0.757075,0.113575,-6.8953196,109.4101356,34.39999771118164,0.0,15.454,0.0
1776325442070,8.36295,6.97095,19.90695,24.74864,-0.87023747,-0.757075,0.113575,-6.8953196,109.4101356,34.39999771118164,0.0,15.454,0.0
1776325442071,28.374,-5.2189503,22.024052,33.986313,0.0056375,0.1507,1.54715,-6.8953196,109.4101356,34.39999771118164,0.0,15.454,0.0
1776325442075,35.17305,-6.0280504,11.27295,36.73651,1.13465,1.9811,-1.1059124,-6.8953196,109.4101356,34.39999771118164,0.0,15.454,0.0
1776325442075,22.78605,9.352051,-10.273951,28.69725,-0.0699875,0.6285125,-0.77288747,-6.8953196,109.4101356,34.39999771118164,0.0,15.454,0.0
1776325442075,-22.323002,27.963001,-13.9480505,36.461887,-0.0699875,0.6285125,-0.77288747,-6.8953196,109.4101356,34.39999771118164,0.0,15.454,0.0
1776325442078,-43.003952,23.761951,-11.116951,47.591713,-0.0699875,0.6285125,-0.77288747,-6.8953196,109.4101356,34.39999771118164,0.0,15.454,0.0
1776325442083,-19.090052,14.74005,-0.47400004,28.81682,-1.472625,-1.04225,0.3488375,-6.8953196,109.4101356,34.39999771118164,0.0,15.454,0.0
1776325442087,9.967951,2.9260502,26.017052,28.174915,-1.0448625,0.0878625,1.7131125,-6.8953196,109.4101356,34.39999771118164,0.0,15.454,0.0
1776325442093,30.81705,-10.732051,22.788002,37.476196,-0.0848375,-0.0185625,1.7142125,-6.8953196,109.4101356,34.39999771118164,0.0,15.454,0.0
1776325442097,39.558002,-4.8190503,5.06295,39.63187,0.5418875,-0.136675,0.7447,-6.8953196,109.4101356,34.39999771118164,0.0,15.454,0.0
1776325442110,18.006,14.56305,-20.50605,32.672077,1.6775,1.1308,-0.505725,-6.8953196,109.4101356,34.39999771118164,0.0,15.454,0.0
1776325442111,-30.115952,29.170052,-23.62095,45.032722,1.03895,2.089725,-1.1719126,-6.8953196,109.4101356,34.39999771118164,0.0,15.454,0.0
1776325442112,-42.403053,21.511051,-13.825951,48.619884,-0.832975,0.1964875,-0.6483125,-6.8953196,109.4101356,34.39999771118164,0.0,15.454,0.0
1776325442118,-17.72505,14.92695,22.506,35.56672,-2.1197,-0.7337,0.7755,-6.8953196,109.4101356,34.39999771118164,0.0,15.454,0.0
1776325442122,11.24205,-4.84305,32.044952,34.556,-0.39985,0.29755,2.0802374,-6.8953196,109.4101356,34.39999771118164,0.0,15.454,0.0
1776325442127,38.06895,-13.036051,11.44995,40.38033,0.25245,-0.35585,1.8833375,-6.8953196,109.4101356,34.39999771118164,0.0,15.454,0.0
1776325442144,44.274002,2.0320501,-9.1050005,44.273018,0.9772125,-0.0408375,0.768075,-6.8953196,109.4101356,34.39999771118164,0.0,15.454,0.0
1776325442144,7.7809505,20.425951,-22.90995,34.186054,0.9772125,-0.0408375,0.768075,-6.8953196,109.4101356,34.39999771118164,0.0,15.454,0.0
1776325442144,-38.631,25.864952,-20.42205,47.459652,1.602975,2.2408376,-0.54835,-6.8953196,109.4101356,34.39999771118164,0.0,15.454,0.0
1776325442146,-38.262,21.52305,6.3630004,44.979034,-0.8639125,0.83709997,-0.96236247,-6.8953196,109.4101356,34.39999771118164,0.0,15.454,0.0
1776325442150,-15.17895,9.603001,29.53305,36.648735,-1.863125,-0.7187125,0.2891625,-6.8953196,109.4101356,34.39999771118164,0.0,15.454,0.0
1776325442156,20.452951,-8.55,20.809952,31.653957,-0.473275,0.31239998,1.9897625,-6.8953196,109.4101356,34.39999771118164,0.0,15.454,0.0
1776325442161,43.999054,-5.8390503,-0.54795,41.841347,0.4035625,-0.4005375,2.0791376,-6.8953196,109.4101356,34.39999771118164,0.0,15.454,0.0
1776325442166,35.11095,10.879951,-12.274051,39.370766,0.5984,-0.1706375,1.0703,-6.8953196,109.4101356,34.39999771118164,0.0,15.454,0.0
1776325442190,-8.53005,17.260052,-25.807951,33.632683,0.22055,-0.052525,2.09935,-6.8953196,109.4101356,34.39999771118164,0.0,15.454,0.0
1776325442191,-34.818,20.649,-2.9329503,39.19586,0.22055,-0.052525,2.09935,-6.8953196,109.4101356,34.39999771118164,0.0,15.454,0.0
1776325442191,-27.784052,19.2,24.23505,41.093884,0.22055,-0.052525,2.09935,-6.8953196,109.4101356,34.39999771118164,0.0,15.454,0.0
1776325442191,-1.9729501,1.7190001,21.781952,25.769634,0.22055,-0.052525,2.09935,-6.8953196,109.4101356,34.39999771118164,0.0,15.454,0.0
1776325442194,31.978052,-8.30805,-0.555,31.589388,0.22055,-0.052525,2.09935,-6.8953196,109.4101356,34.39999771118164,0.0,15.454,0.0
1776325442212,40.2,5.40705,-7.728,39.35118,0.22055,-0.052525,2.09935,-6.8953196,109.4101356,34.39999771118164,0.0,15.454,0.0
1776325442212,7.6140003,12.83895,-19.23405,27.347572,0.22055,-0.052525,2.09935,-6.8953196,109.4101356,34.39999771118164,0.0,15.454,0.0
1776325442213,-24.94605,18.38805,-9.667951,31.440514,0.3663,-0.3271125,1.391775,-6.8953196,109.4101356,34.39999771118164,0.0,15.454,0.0
1776325442213,-25.669052,21.70005,17.886002,36.74806,0.769725,1.0957375,0.33715,-6.8953196,109.4101356,34.39999771118164,0.0,15.454,0.0
1776325442216,-9.088051,8.09895,22.048052,27.497898,-0.9618125,0.1049125,0.6436375,-6.8953196,109.4101356,34.39999771118164,0.0,15.454,0.0
1776325442226,24.361952,-7.1470504,5.307,26.24951,-0.07425,0.322025,1.8525375,-6.8953196,109.4101356,34.39999771118164,0.0,15.454,0.0
1776325442232,37.870052,1.4140501,-6.28905,35.981697,0.3909125,0.027224999,0.98408747,-6.8953196,109.4101356,34.39999771118164,0.0,15.454,0.0
1776325442233,11.71395,15.127951,-16.024052,27.161777,0.57915,0.69025,0.4393125,-6.8953196,109.4101356,34.39999771118164,0.0,15.454,0.0
1776325442251,-22.179,18.045,-17.029951,32.056248,1.0602624,1.9608874,-0.3642375,-6.8953196,109.4101356,34.39999771118164,0.0,15.454,0.0
1776325442251,-26.20095,20.007002,9.53205,33.86454,0.3705625,-0.120725,1.830125,-6.8953196,109.4101356,34.39999771118164,0.0,15.454,0.0
1776325442251,-14.616001,12.217951,26.364,32.794025,0.3705625,-0.120725,1.830125,-6.8953196,109.4101356,34.39999771118164,0.0,15.454,0.0
1776325442252,17.563051,-5.097,14.485051,25.222256,0.3705625,-0.120725,1.830125,-6.8953196,109.4101356,34.39999771118164,0.0,15.454,0.0
1776325442258,40.62405,-4.19805,-2.9599502,37.80246,0.3705625,-0.120725,1.830125,-6.8953196,109.4101356,34.39999771118164,0.0,15.454,0.0
1776325442261,25.93995,12.010051,-12.22605,32.43263,0.5185125,0.2050125,0.799975,-6.8953196,109.4101356,34.39999771118164,0.0,15.454,0.0
1776325442266,-13.98795,15.9210005,-23.767952,31.96193,-0.0933625,1.759725,-0.3961375,-6.8953196,109.4101356,34.39999771118164,0.0,15.454,0.0
1776325442284,-30.231,20.557951,2.9650502,35.735424,-0.0933625,1.759725,-0.3961375,-6.8953196,109.4101356,34.39999771118164,0.0,15.454,0.0
1776325442284,-25.017002,17.37195,24.181952,38.258774,0.2578125,-0.1376375,2.207975,-6.8953196,109.4101356,34.39999771118164,0.0,15.454,0.0
1776325442285,5.28105,-0.81705004,17.799002,22.51888,0.2578125,-0.1376375,2.207975,-6.8953196,109.4101356,34.39999771118164,0.0,15.454,0.0
1776325442287,39.441,-8.031,-2.0710502,36.746647,0.2578125,-0.1376375,2.207975,-6.8953196,109.4101356,34.39999771118164,0.0,15.454,0.0
1776325442291,39.445953,6.2190003,-9.333,40.156784,1.1847,1.596925,0.1412125,-6.8953196,109.4101356,34.39999771118164,0.0,15.454,0.0
1776325442298,3.1900501,11.59605,-26.244001,31.126188,1.1847,1.596925,0.1412125,-6.8953196,109.4101356,34.39999771118164,0.0,15.454,0.0
1776325442311,-26.629051,20.26305,-2.5140002,33.070187,0.4217125,1.9278874,-0.5770875,-6.8953196,109.4101356,34.39999771118164,0.0,15.454,0.0
1776325442312,-31.788002,21.820051,24.256052,43.055313,0.4217125,1.9278874,-0.5770875,-6.8953196,109.4101356,34.39999771118164,0.0,15.454,0.0
1776325442312,-10.144051,7.7970004,19.236,27.092945,-0.5797,0.3986125,0.719125,-6.8953196,109.4101356,34.39999771118164,0.0,15.454,0.0
1776325442317,31.080002,-5.6910005,-6.22905,31.182503,0.2748625,-0.09405,2.091925,-6.8953196,109.4101356,34.39999771118164,0.0,15.454,0.0
1776325442322,44.647953,5.8879504,-15.286951,44.283195,0.65793747,-0.2462625,1.7535375,-6.8953196,109.4101356,34.39999771118164,0.0,15.454,0.0
1776325442332,19.047,7.4809504,-30.784952,38.42923,0.77288747,0.992475,0.6978125,-6.8953196,109.4101356,34.39999771118164,0.0,15.454,0.0
1776325442345,-14.994,13.852051,-9.847951,25.817482,0.4195125,1.8214625,-0.4026,-6.8953196,109.4101356,34.39999771118164,0.0,15.454,0.0
1776325442345,-31.956001,20.59905,33.850952,45.88809,-0.702075,0.8520875,0.3147375,-6.8953196,109.4101356,34.39999771118164,0.0,15.454,0.0
1776325442347,-21.667051,7.9120502,29.338951,39.034187,-0.702075,0.8520875,0.3147375,-6.8953196,109.4101356,34.39999771118164,0.0,15.454,0.0
1776325442347,22.087051,-2.943,2.4810002,25.742802,-0.702075,0.8520875,0.3147375,-6.8953196,109.4101356,34.39999771118164,0.0,15.454,0.0
1776325442352,37.587,5.00895,-9.591001,36.439297,0.834625,0.108075,1.766325,-6.8953196,109.4101356,34.39999771118164,0.0,15.454,0.0
1776325442359,11.757001,15.993001,-18.886951,29.207275,0.74415,1.54275,-0.1992375,-6.8953196,109.4101356,34.39999771118164,0.0,15.454,0.0
1776325442368,-15.022951,16.93695,-16.855951,28.421764,0.74415,1.54275,-0.1992375,-6.8953196,109.4101356,34.39999771118164,0.0,15.454,0.0
1776325442368,-19.12305,18.802052,16.261951,30.775028,-0.881925,0.631675,0.7541875,-6.8953196,109.4101356,34.39999771118164,0.0,15.454,0.0
1776325442372,-7.3830004,8.439,26.508001,29.180552,-0.881925,0.631675,0.7541875,-6.8953196,109.4101356,34.39999771118164,0.0,15.454,0.0
1776325442378,28.335001,-3.17595,10.96605,30.274942,-0.2891625,0.1049125,1.6971625,-6.8953196,109.4101356,34.39999771118164,0.0,15.454,0.0
1776325442382,44.515953,-3.2980502,-9.46905,42.55998,0.489775,-0.1122,1.496,-6.8953196,109.4101356,34.39999771118164,0.0,15.454,0.0
1776325442396,24.273,7.9339504,-11.75895,31.003227,-0.097625,1.794925,-0.8452125,-6.8953196,109.4101356,34.39999771118164,0.0,15.454,0.0
1776325442397,-17.26695,15.0709505,-14.42205,27.863913,-0.097625,1.794925,-0.8452125,-6.8953196,109.4101356,34.39999771118164,0.0,15.454,0.0
1776325442398,-36.106052,21.52095,9.012,39.963615,-0.097625,1.794925,-0.8452125,-6.8953196,109.4101356,34.39999771118164,0.0,15.454,0.0
1776325442403,-28.23195,15.054001,20.482052,38.384094,-0.850025,0.20185,-0.246125,-6.8953196,109.4101356,34.39999771118164,0.0,15.454,0.0
1776325442407,9.68505,-1.50405,17.004002,23.377998,-0.5339125,0.013475,1.2321374,-6.8953196,109.4101356,34.39999771118164,0.0,15.454,0.0
1776325442412,40.72005,-6.3949504,1.7550001,37.68079,0.2387,-0.413325,1.8812749,-6.8953196,109.4101356,34.39999771118164,0.0,15.454,0.0
1776325442417,39.657,4.8300004,-9.8550005,40.454266,0.5099875,-0.30153748,1.0819875,-6.8953196,109.4101356,34.39999771118164,0.0,15.454,0.0
1776325442432,8.113951,9.391951,-29.845951,33.949867,1.3220625,1.0978,-0.1684375,-6.8953196,109.4101356,34.39999771118164,0.0,15.454,0.0
1776325442432,-25.719002,23.608952,-3.3400502,34.847122,1.3220625,1.0978,-0.1684375,-6.8953196,109.4101356,34.39999771118164,0.0,15.454,0.0
1776325442436,-37.29705,23.235,16.164001,44.42626,-0.59455,1.0478874,-0.924,-6.8953196,109.4101356,34.39999771118164,0.0,15.454,0.0
1776325442438,-10.362,11.857051,12.288,24.864353,-0.587125,0.022,0.20515,-6.8953196,109.4101356,34.39999771118164,0.0,15.454,0.0
1776325442442,32.53395,-2.00895,1.6999501,31.085045,-0.294525,-0.55275,1.7067875,-6.8953196,109.4101356,34.39999771118164,0.0,15.454,0.0
1776325442451,43.434002,1.2919501,3.3649502,41.083656,0.0768625,-0.087725,1.6077875,-6.8953196,109.4101356,34.39999771118164,0.0,15.454,0.0
1776325442465,20.937,3.3780003,-10.461,27.134682,0.0768625,-0.087725,1.6077875,-6.8953196,109.4101356,34.39999771118164,0.0,15.454,0.0
1776325442465,-13.64805,17.811,-4.8300004,23.789158,0.0768625,-0.087725,1.6077875,-6.8953196,109.4101356,34.39999771118164,0.0,15.454,0.0
1776325442465,-33.40995,26.541,10.224001,39.85933,0.0768625,-0.087725,1.6077875,-6.8953196,109.4101356,34.39999771118164,0.0,15.454,0.0
1776325442468,-25.209002,16.486052,6.9240003,32.697243,-0.1912625,0.6700375,-0.1280125,-6.8953196,109.4101356,34.39999771118164,0.0,15.454,0.0
1776325442473,15.943951,2.11605,2.253,19.532082,-0.637175,-0.397375,1.21825,-6.8953196,109.4101356,34.39999771118164,0.0,15.454,0.0
1776325442478,36.768,-3.5779502,3.31695,33.57865,-0.164725,-0.0972125,1.7290624,-6.8953196,109.4101356,34.39999771118164,0.0,15.454,0.0
1776325442483,24.805052,-2.46195,7.7520003,27.599337,-0.3136375,0.583825,0.949025,-6.8953196,109.4101356,34.39999771118164,0.0,15.454,0.0
1776325442496,-1.9390501,4.6740003,12.873,16.585354,0.0950125,0.98931247,-0.212025,-6.8953196,109.4101356,34.39999771118164,0.0,15.454,0.0
1776325442498,-22.861952,15.088051,18.81705,29.903074,0.4962375,0.83599997,-0.080025,-6.8953196,109.4101356,34.39999771118164,0.0,15.454,0.0
1776325442501,-23.133001,19.236,9.11505,31.12969,0.4962375,0.83599997,-0.080025,-6.8953196,109.4101356,34.39999771118164,0.0,15.454,0.0
1776325442506,0.333,10.578,-7.7830505,16.73554,0.425975,0.1571625,0.671275,-6.8953196,109.4101356,34.39999771118164,0.0,15.454,0.0
1776325442508,24.54405,1.5870001,-7.04295,23.814169,-0.07425,-0.25575,1.2703625,-6.8953196,109.4101356,34.39999771118164,0.0,15.454,0.0
1776325442513,17.34,4.7790003,8.706,20.749004,-0.2668875,0.2795375,0.66385,-6.8953196,109.4101356,34.39999771118164,0.0,15.454,0.0
1776325442518,1.28805,6.3700504,16.887001,18.625322,-0.2657875,0.7434625,0.1029875,-6.8953196,109.4101356,34.39999771118164,0.0,15.454,0.0
1776325442529,6.43095,8.52795,15.43605,18.741957,0.5930375,0.5380375,0.1986875,-6.8953196,109.4101356,34.39999771118164,0.0,15.454,0.0
1776325442534,4.55805,10.72095,-0.78300005,13.089147,0.5930375,0.5380375,0.1986875,-6.8953196,109.4101356,34.39999771118164,0.0,15.454,0.0
1776325442536,5.47305,15.99495,-5.1060004,16.745565,0.5759875,0.46365,0.1881,-6.8953196,109.4101356,34.39999771118164,0.0,15.454,0.0
1776325442543,5.6620502,10.305,-7.7260504,14.60451,0.40039998,0.518925,0.1445125,-6.8953196,109.4101356,34.39999771118164,0.0,15.454,0.0
1776325442548,-1.6369501,5.40495,0.75195,7.478692,-0.277475,0.5434,0.07425,-6.8953196,109.4101356,34.39999771118164,0.0,15.454,0.0
1776325442567,-14.848051,7.938,17.011051,20.643206,-0.1571625,0.8265125,-0.17379999,-6.8953196,109.4101356,34.39999771118164,0.0,15.454,0.0
1776325442567,-15.82995,11.68395,15.651001,24.241219,0.6197125,0.1529,0.6479,-6.8953196,109.4101356,34.39999771118164,0.0,15.454,0.0
1776325442567,6.6870003,11.590951,3.1710002,15.849956,0.6197125,0.1529,0.6479,-6.8953196,109.4101356,34.39999771118164,0.0,15.454,0.0
1776325442574,20.23995,7.0069504,-14.860051,24.024904,0.54725,-0.0642125,0.95535,-6.8953196,109.4101356,34.39999771118164,0.0,15.454,0.0
1776325442579,23.07405,9.258,-2.7540002,24.816288,0.2035,0.21133749,0.5201625,-6.8953196,109.4101356,34.39999771118164,0.0,15.454,0.0
1776325442584,3.8100002,9.03495,5.5030503,13.958546,-0.27115,0.764775,0.049775,-6.8953196,109.4101356,34.39999771118164,0.0,15.454,0.0
1776325442597,-8.434051,11.919001,12.279,18.0541,0.280225,0.64762497,0.3179,-6.8953196,109.4101356,34.39999771118164,0.0,15.454,0.0
1776325442598,-12.70005,13.291051,-4.3489504,18.723341,0.280225,0.64762497,0.3179,-6.8953196,109.4101356,34.39999771118164,0.0,15.454,0.0
1776325442601,-7.5120006,14.23305,-2.32305,16.753132,0.280225,0.64762497,0.3179,-6.8953196,109.4101356,34.39999771118164,0.0,15.454,0.0
1776325442604,-3.18705,10.578,4.8180003,12.992685,-0.13695,0.5104,0.589325,-6.8953196,109.4101356,34.39999771118164,0.0,15.454,0.0
1776325442609,14.269051,2.04195,12.243001,17.728193,-0.539275,0.2858625,0.897875,-6.8953196,109.4101356,34.39999771118164,0.0,15.454,0.0
1776325442614,18.844051,-3.55395,13.443001,22.28073,-0.4285875,0.2784375,0.815925,-6.8953196,109.4101356,34.39999771118164,0.0,15.454,0.0
1776325442636,6.9649506,-0.86505,16.35,18.690332,0.1502875,1.0861125,0.180675,-6.8953196,109.4101356,34.39999771118164,0.0,15.454,0.0
1776325442637,-5.9890504,10.156051,14.844001,18.90347,-0.4052125,0.52854997,0.917125,-6.8953196,109.4101356,34.39999771118164,0.0,15.454,0.0
1776325442638,-12.204,15.319951,0.48105,19.454773,-0.4923875,0.7093625,0.979825,-6.8953196,109.4101356,34.39999771118164,0.0,15.454,0.0
1776325442639,-3.7210503,14.527051,-2.4520502,16.047112,-0.4923875,0.7093625,0.979825,-6.8953196,109.4101356,34.39999771118164,0.0,15.454,0.0
1776325442639,5.1280503,6.29505,2.53395,10.013913,-0.4923875,0.7093625,0.979825,-6.8953196,109.4101356,34.39999771118164,0.0,15.454,0.0
1776325442641,14.326951,0.33195,17.44005,20.060947,-0.4923875,0.7093625,0.979825,-6.8953196,109.4101356,34.39999771118164,0.0,15.454,0.0
1776325442646,13.42395,0.10005,16.35495,20.939268,0.25575,0.9702,0.6425375,-6.8953196,109.4101356,34.39999771118164,0.0,15.454,0.0
1776325442651,8.60505,7.31295,6.327,14.543361,0.5632,0.9222125,0.3733125,-6.8953196,109.4101356,34.39999771118164,0.0,15.454,0.0
1776325442652,1.2210001,9.45705,-4.2190504,11.250453,0.638825,1.2340626,0.34553748,-6.8953196,109.4101356,34.39999771118164,0.0,15.454,0.0
1776325442668,-6.6120005,12.261001,6.78,14.644131,0.1375,0.8520875,0.9766625,-6.8953196,109.4101356,34.39999771118164,0.0,15.454,0.0
1776325442668,-9.28905,10.21905,9.501,16.338898,0.0842875,0.5572875,0.86707497,-6.8953196,109.4101356,34.39999771118164,0.0,15.454,0.0
1776325442668,8.907001,2.70495,7.6780505,12.921095,0.0842875,0.5572875,0.86707497,-6.8953196,109.4101356,34.39999771118164,0.0,15.454,0.0
1776325442673,10.906951,1.74495,5.49405,12.453477,0.182325,0.6967125,0.5669125,-6.8953196,109.4101356,34.39999771118164,0.0,15.454,0.0
1776325442678,4.14795,4.66905,10.79205,12.46583,0.28655,1.073325,0.4797375,-6.8953196,109.4101356,34.39999771118164,0.0,15.454,0.0
1776325442682,-0.62205005,11.113951,7.5390005,13.248433,0.669625,0.8806875,0.3051125,-6.8953196,109.4101356,34.39999771118164,0.0,15.454,0.0
1776325442698,-1.3450501,14.367001,-2.25795,14.334021,0.6653625,0.8317375,0.507375,-6.8953196,109.4101356,34.39999771118164,0.0,15.454,0.0
1776325442698,2.7570002,12.064951,-5.14905,13.59029,0.6653625,0.8317375,0.507375,-6.8953196,109.4101356,34.39999771118164,0.0,15.454,0.0
1776325442713,6.3180003,4.827,0.87105006,9.116848,-0.114675,0.748825,0.6158625,-6.8953196,109.4101356,34.39999771118164,0.0,15.454,0.0
1776325442714,4.9099503,4.4370003,10.48995,11.745745,0.5781875,0.785125,0.5368,-6.8953196,109.4101356,34.39999771118164,0.0,15.454,0.0
1776325442714,-0.034950003,10.144051,6.03,11.789959,0.5781875,0.785125,0.5368,-6.8953196,109.4101356,34.39999771118164,0.0,15.454,0.0
1776325442715,5.0940003,8.95905,-4.0999503,11.231252,0.5781875,0.785125,0.5368,-6.8953196,109.4101356,34.39999771118164,0.0,15.454,0.0
1776325442718,4.73505,10.64505,-1.2060001,11.616577,0.12375,0.65945,0.2866875,-6.8953196,109.4101356,34.39999771118164,0.0,15.454,0.0
1776325442725,-1.09095,6.2430005,4.39395,8.4927635,0.0864875,1.0223125,0.44,-6.8953196,109.4101356,34.39999771118164,0.0,15.454,0.0
1776325442728,3.2620502,7.1650505,9.606001,11.634481,0.1194875,0.62865,0.4261125,-6.8953196,109.4101356,34.39999771118164,0.0,15.454,0.0
1776325442734,1.914,8.961,3.801,10.2630625,0.406725,0.82335,0.4175875,-6.8953196,109.4101356,34.39999771118164,0.0,15.454,0.0
1776325442748,3.4650002,9.79905,4.2649503,11.040335,0.2919125,0.846725,0.5262125,-6.8953196,109.4101356,34.39999771118164,0.0,15.454,0.0
1776325442748,2.6779501,9.364051,4.44495,10.772717,0.230175,1.0096625,0.5176875,-6.8953196,109.4101356,34.39999771118164,0.0,15.454,0.0
1776325442755,1.84395,5.24595,2.67705,7.0917006,0.13859999,0.8265125,0.3271125,-6.8953196,109.4101356,34.39999771118164,0.0,15.454,0.0
1776325442764,-1.79295,11.698951,9.616051,13.617974,0.13859999,0.8265125,0.3271125,-6.8953196,109.4101356,34.39999771118164,0.0,15.454,0.0
1776325442773,-3.8929503,9.13095,8.892,13.384836,0.406725,1.1947374,0.4750625,-6.8953196,109.4101356,34.39999771118164,0.0,15.454,0.0
1776325442773,8.851951,3.795,5.98005,11.746303,0.406725,1.1947374,0.4750625,-6.8953196,109.4101356,34.39999771118164,0.0,15.454,0.0
1776325442773,12.397051,5.0070004,7.9890003,14.809272,0.406725,1.1947374,0.4750625,-6.8953196,109.4101356,34.39999771118164,0.0,15.454,0.0
1776325442779,3.453,2.12805,5.3640003,8.341776,0.181225,0.9191875,0.49005,-6.8953196,109.4101356,34.39999771118164,0.0,15.454,0.0
1776325442784,6.67995,7.31295,10.606951,13.278237,0.181225,0.9191875,0.49005,-6.8953196,109.4101356,34.39999771118164,0.0,15.454,0.0
1776325442784,-2.8990502,7.7160006,3.8119502,9.92078,0.181225,0.9191875,0.49005,-6.8953196,109.4101356,34.39999771118164,0.0,15.454,0.0
1776325442798,-1.89795,9.11205,3.5830503,9.962924,0.278025,0.9436625,0.658075,-6.8953196,109.4101356,34.39999771118164,0.0,15.454,0.0
1776325442798,6.6840005,4.8300004,3.144,9.052987,0.278025,0.9436625,0.658075,-6.8953196,109.4101356,34.39999771118164,0.0,15.454,0.0
1776325442799,4.53105,2.5900502,5.1469502,7.6746507,0.278025,0.9436625,0.658075,-6.8953196,109.4101356,34.39999771118164,0.0,15.454,0.0
1776325442805,6.9529505,7.82805,10.416,13.349903,0.328075,1.0745625,0.7123875,-6.8953196,109.4101356,34.39999771118164,0.0,15.454,0.0
1776325442808,8.434951,7.0999503,2.601,11.732357,0.5845125,1.18195,0.7018,-6.8953196,109.4101356,34.39999771118164,0.0,15.454,0.0
1776325442814,10.320001,7.9600506,-1.218,12.818479,0.4015,1.05325,0.5974375,-6.8953196,109.4101356,34.39999771118164,0.0,15.454,0.0
1776325442818,7.326,7.524,-0.26505002,10.967546,0.406725,1.4075875,0.49005,-6.8953196,109.4101356,34.39999771118164,0.0,15.454,0.0
1776325442832,-2.02095,5.58195,1.87995,7.1751795,0.22687499,1.3671625,0.350625,-6.8953196,109.4101356,34.39999771118164,0.0,15.454,0.0
1776325442833,-1.6489501,9.946051,9.5130005,12.524206,0.489775,1.142625,0.7337,-6.8953196,109.4101356,34.39999771118164,0.0,15.454,0.0
1776325442834,-2.7270002,9.064051,5.5009503,11.263069,0.489775,1.142625,0.7337,-6.8953196,109.4101356,34.39999771118164,0.0,15.454,0.0
1776325442838,6.8089504,4.7200503,-1.01205,8.929855,0.3557125,0.90749997,0.8336625,-6.8953196,109.4101356,34.39999771118164,0.0,15.454,0.0
1776325442841,14.599951,3.73005,2.8519502,14.055099,0.2589125,0.9670375,0.8518125,-6.8953196,109.4101356,34.39999771118164,0.0,15.454,0.0
1776325442846,-1.8600001,4.617,2.8879502,7.4147778,0.406725,1.469325,0.4016375,-6.8953196,109.4101356,34.39999771118164,0.0,15.454,0.0
1776325442851,-0.42105,6.9949503,3.4699502,7.738688,0.48235,1.403325,0.3526875,-6.8953196,109.4101356,34.39999771118164,0.0,15.454,0.0
1776325442865,-1.1220001,9.831,3.492,9.94208,0.473825,1.288375,0.561275,-6.8953196,109.4101356,34.39999771118164,0.0,15.454,0.0
1776325442867,-5.5150504,10.413,4.938,12.209342,0.473825,1.288375,0.561275,-6.8953196,109.4101356,34.39999771118164,0.0,15.454,0.0
1776325442869,8.746051,8.467951,12.322051,16.299026,0.295075,1.2926375,0.9348625,-6.8953196,109.4101356,34.39999771118164,0.0,15.454,0.0
1776325442873,0.0049500004,8.78205,8.00595,12.766676,0.4345,1.2447875,0.5687,-6.8953196,109.4101356,34.39999771118164,0.0,15.454,0.0
1776325442876,-4.09905,14.374051,-2.63205,14.694985,0.7293,1.0426625,0.3111625,-6.8953196,109.4101356,34.39999771118164,0.0,15.454,0.0
1776325442882,4.9099503,22.34505,-11.89095,23.566027,0.5451875,0.342375,0.382525,-6.8953196,109.4101356,34.39999771118164,0.0,15.454,0.0
1776325442899,4.059,21.561,-17.35095,27.090446,0.5451875,0.342375,0.382525,-6.8953196,109.4101356,34.39999771118164,0.0,15.454,0.0
1776325442899,20.389051,4.84905,5.8890004,22.833614,0.5451875,0.342375,0.382525,-6.8953196,109.4101356,34.39999771118164,0.0,15.454,0.0
1776325442899,22.69305,-8.62695,39.53205,41.680016,-1.1320375,0.33385,0.91355,-6.8953196,109.4101356,34.39999771118164,0.0,15.454,0.0
1776325442903,4.58895,-5.15595,40.62405,41.30101,-1.290575,0.6776,0.7943375,-6.8953196,109.4101356,34.39999771118164,0.0,15.454,0.0
1776325442907,3.3769503,5.68695,4.6579504,14.731886,1.3124375,0.7766,-0.1612875,-6.8953196,109.4101356,34.39999771118164,0.0,15.454,0.0
1776325442911,-4.8829503,25.348051,-25.930052,32.217358,2.107325,0.8435625,-0.1687125,-6.8953196,109.4101356,34.39999771118164,0.0,15.454,0.0
1776325442934,-23.001001,32.017952,-31.848001,46.987694,0.69836247,-0.073699996,0.73149997,-6.8953196,109.4101356,34.39999771118164,0.0,15.454,0.0
1776325442935,-12.40095,16.788,0.21000001,26.095604,0.69836247,-0.073699996,0.73149997,-6.8953196,109.4101356,34.39999771118164,0.0,15.454,0.0
1776325442936,10.749001,-6.7879505,42.69105,40.8541,0.69836247,-0.073699996,0.73149997,-6.8953196,109.4101356,34.39999771118164,0.0,15.454,0.0
1776325442936,24.427052,-20.892,42.11595,50.555046,0.69836247,-0.073699996,0.73149997,-6.8953196,109.4101356,34.39999771118164,0.0,15.454,0.0
1776325442938,34.49805,-7.79295,20.16105,42.6791,0.69836247,-0.073699996,0.73149997,-6.8953196,109.4101356,34.39999771118164,0.0,15.454,0.0
1776325442945,20.458052,15.115951,-10.894051,30.67291,2.0307374,0.357225,-0.0963875,-6.8953196,109.4101356,34.39999771118164,0.0,15.454,0.0
1776325442947,-9.96,26.445002,-18.951,33.354343,1.8827875,1.141525,-0.8562125,-6.8953196,109.4101356,34.39999771118164,0.0,15.454,0.0
1776325442952,-26.169,21.705002,6.6049504,34.378475,0.2684,1.1394625,-0.892375,-6.8953196,109.4101356,34.39999771118164,0.0,15.454,0.0
1776325442966,-20.13405,8.226001,22.366951,31.834251,-0.639375,0.3603875,-0.3166625,-6.8953196,109.4101356,34.39999771118164,0.0,15.454,0.0
1776325442968,5.1660004,-1.0129501,10.602,15.8365,0.818675,-0.3696,0.5644375,-6.8953196,109.4101356,34.39999771118164,0.0,15.454,0.0
1776325442969,20.42205,4.629,2.29605,20.019783,0.818675,-0.3696,0.5644375,-6.8953196,109.4101356,34.39999771118164,0.0,15.454,0.0
1776325442972,11.059951,14.26605,2.6530502,18.599987,0.84315,-0.0939125,-0.1208625,-6.8953196,109.4101356,34.39999771118164,0.0,15.454,0.0
1776325442977,4.55805,13.099951,5.781,15.741431,0.6430875,0.3518625,-0.36135,-6.8953196,109.4101356,34.39999771118164,0.0,15.454,0.0
1776325442982,1.281,10.21905,6.64305,12.952778,0.521675,0.261525,-0.615725,-6.8953196,109.4101356,34.39999771118164,0.0,15.454,0.0
1776325443001,-9.7900505,12.769051,7.28805,16.721586,0.521675,0.261525,-0.615725,-6.8953196,109.4101356,34.39999771118164,0.0,15.454,0.0
1776325443001,-10.722,12.465,3.8149502,16.847298,0.73562497,-0.1183875,-0.0963875,-6.8953196,109.4101356,34.39999771118164,0.0,15.454,0.0
1776325443002,-2.739,11.562,-1.6639501,12.967817,0.73562497,-0.1183875,-0.0963875,-6.8953196,109.4101356,34.39999771118164,0.0,15.454,0.0
1776325443003,-1.695,15.94305,-4.9999504,16.02912,0.5674625,0.0859375,0.0484,-6.8953196,109.4101356,34.39999771118164,0.0,15.454,0.0
1776325443008,1.9090501,11.91405,-3.24195,13.201001,0.115225,0.0985875,0.1802625,-6.8953196,109.4101356,34.39999771118164,0.0,15.454,0.0
1776325443013,6.6529503,7.7040005,8.701051,13.353084,0.016224999,0.0614625,-0.06765,-6.8953196,109.4101356,34.39999771118164,0.0,15.454,0.0
1776325443018,1.593,7.0260005,12.954,14.52867,0.58025,0.3051125,0.0664125,-6.8953196,109.4101356,34.39999771118164,0.0,15.454,0.0
1776325443035,3.8920503,4.7530503,4.15695,8.83976,0.58025,0.3051125,0.0664125,-6.8953196,109.4101356,34.39999771118164,0.0,15.454,0.0
1776325443035,6.1909504,7.93095,2.83095,10.129468,0.58025,0.3051125,0.0664125,-6.8953196,109.4101356,34.39999771118164,0.0,15.454,0.0
1776325443036,-4.71,11.026051,10.284,14.662819,0.358875,0.6381375,4.125E-4,-6.8953196,109.4101356,34.39999771118164,0.0,15.454,0.0
1776325443042,-1.233,7.56195,10.662001,13.436099,0.4312,0.4136,0.429275,-6.8953196,109.4101356,34.39999771118164,0.0,15.454,0.0
1776325443045,13.266001,4.3890004,0.92595005,13.89029,0.5962,0.21779999,0.48894998,-6.8953196,109.4101356,34.39999771118164,0.0,15.454,0.0
1776325443050,9.894,8.40795,-0.77805007,13.18391,0.507925,0.521125,0.1750375,-6.8953196,109.4101356,34.39999771118164,0.0,15.454,0.0
1776325443056,2.74005,8.223001,6.56895,11.337191,0.2674375,0.7530875,0.2314125,-6.8953196,109.4101356,34.39999771118164,0.0,15.454,0.0
1776325443061,6.5599504,4.52295,11.12895,13.217319,0.21835,0.5732375,0.3399,-6.8953196,109.4101356,34.39999771118164,0.0,15.454,0.0
1776325443067,5.6860504,6.1759505,7.17705,11.479158,0.62067497,0.686125,0.3867875,-6.8953196,109.4101356,34.39999771118164,0.0,15.454,0.0
1776325443081,6.43305,8.394,4.9240503,11.628429,0.62067497,0.686125,0.3867875,-6.8953196,109.4101356,34.39999771118164,0.0,15.454,0.0
1776325443082,12.06795,5.18895,2.6560502,13.047335,0.6153125,0.8020375,0.0408375,-6.8953196,109.4101356,34.39999771118164,0.0,15.454,0.0
1776325443082,10.60305,7.00395,4.8109503,13.479618,0.6153125,0.8020375,0.0408375,-6.8953196,109.4101356,34.39999771118164,0.0,15.454,0.0
1776325443086,2.2459502,9.24405,3.8820002,10.915576,0.6153125,0.8020375,0.0408375,-6.8953196,109.4101356,34.39999771118164,0.0,15.454,0.0
1776325443091,3.31695,6.5779505,-0.54300004,8.092644,0.537625,0.5902875,0.1142625,-6.8953196,109.4101356,34.39999771118164,0.0,15.454,0.0
1776325443097,2.5480502,8.884951,4.1020503,9.708491,0.3696,0.6232875,0.0089375,-6.8953196,109.4101356,34.39999771118164,0.0,15.454,0.0
1776325443114,-4.875,11.349001,7.4290504,13.472699,0.5451875,0.6626125,0.0823625,-6.8953196,109.4101356,34.39999771118164,0.0,15.454,0.0
1776325443114,6.26805,7.9549503,0.90000004,10.828604,0.604725,0.2391125,0.119625,-6.8953196,109.4101356,34.39999771118164,0.0,15.454,0.0
1776325443115,15.45495,6.7840505,-5.7949505,16.442085,0.604725,0.2391125,0.119625,-6.8953196,109.4101356,34.39999771118164,0.0,15.454,0.0
1776325443117,4.5480003,10.807951,-3.726,13.131317,0.523875,0.53075,-0.2666125,-6.8953196,109.4101356,34.39999771118164,0.0,15.454,0.0
1776325443121,-2.05605,10.911,3.4680002,11.931893,0.2982375,0.504075,-0.207075,-6.8953196,109.4101356,34.39999771118164,0.0,15.454,0.0
1776325443126,-1.89795,9.7560005,4.33005,11.059319,0.589875,0.1838375,-0.13145,-6.8953196,109.4101356,34.39999771118164,0.0,15.454,0.0
1776325443148,-0.26295,9.856951,-3.7879503,10.6622715,0.702625,0.1890625,-0.0314875,-6.8953196,109.4101356,34.39999771118164,0.0,15.454,0.0
1776325443148,6.66795,11.397,-5.9610004,13.722427,0.0705375,0.0444125,-0.1219625,-6.8953196,109.4101356,34.39999771118164,0.0,15.454,0.0
1776325443149,7.6039505,8.752951,-0.88605005,12.047193,0.309925,0.10395,-0.2943875,-6.8953196,109.4101356,34.39999771118164,0.0,15.454,0.0
1776325443149,6.0349503,5.7730503,6.282,10.769812,0.309925,0.10395,-0.2943875,-6.8953196,109.4101356,34.39999771118164,0.0,15.454,0.0
1776325443149,4.22505,7.6489506,5.66895,10.486816,0.309925,0.10395,-0.2943875,-6.8953196,109.4101356,34.39999771118164,0.0,15.454,0.0
1776325443154,-0.44700003,9.426001,-3.4410002,10.132876,0.5632,0.0561,-0.450725,-6.8953196,109.4101356,34.39999771118164,0.0,15.454,0.0
1776325443159,0.036000002,10.149,-2.5429502,10.396812,0.51425,0.0125124995,-0.3900875,-6.8953196,109.4101356,34.39999771118164,0.0,15.454,0.0
1776325443163,-2.9550002,11.314951,6.675,12.851646,0.0864875,-0.052525,-0.3773,-6.8953196,109.4101356,34.39999771118164,0.0,15.454,0.0
1776325443169,-0.72195005,7.76595,9.26595,12.259549,0.0301125,-0.1408,-0.3018125,-6.8953196,109.4101356,34.39999771118164,0.0,15.454,0.0
1776325443180,13.9129505,1.7310001,4.083,14.134032,0.506825,-0.0119624995,-0.6774625,-6.8953196,109.4101356,34.39999771118164,0.0,15.454,0.0
1776325443181,12.804001,4.9279504,1.8079501,13.8973675,0.506825,-0.0119624995,-0.6774625,-6.8953196,109.4101356,34.39999771118164,0.0,15.454,0.0
1776325443184,0.41895002,10.25205,2.49495,11.227141,0.506825,-0.0119624995,-0.6774625,-6.8953196,109.4101356,34.39999771118164,0.0,15.454,0.0
1776325443189,-1.6210501,9.574051,6.102,11.420164,0.36313748,0.055,-0.5625125,-6.8953196,109.4101356,34.39999771118164,0.0,15.454,0.0
1776325443196,-2.8279502,8.25195,7.314,11.390921,0.263175,-0.1078,-0.4742375,-6.8953196,109.4101356,34.39999771118164,0.0,15.454,0.0
1776325443204,1.7719501,6.5520005,4.6600504,8.8646965,0.32065,-0.25465,-0.3496625,-6.8953196,109.4101356,34.39999771118164,0.0,15.454,0.0
1776325443214,11.38605,5.14095,5.8360505,12.803979,0.4610375,-0.19085,-0.5295125,-6.8953196,109.4101356,34.39999771118164,0.0,15.454,0.0
1776325443214,9.07695,4.9570503,4.7779503,11.674906,0.4610375,-0.19085,-0.5295125,-6.8953196,109.4101356,34.39999771118164,0.0,15.454,0.0
1776325443215,7.0030503,8.13,3.6520503,11.4028,0.4610375,-0.19085,-0.5295125,-6.8953196,109.4101356,34.39999771118164,0.0,15.454,0.0
1776325443219,1.8919501,11.377951,1.9060501,11.633045,0.4334,-0.232375,-0.737,-6.8953196,109.4101356,34.39999771118164,0.0,15.454,0.0
1776325443229,-2.9640002,10.99005,0.70605004,11.450293,0.4334,-0.232375,-0.737,-6.8953196,109.4101356,34.39999771118164,0.0,15.454,0.0
1776325443233,3.2359502,9.831,3.69495,11.081785,0.230175,-0.5218125,-0.4763,-6.8953196,109.4101356,34.39999771118164,0.0,15.454,0.0
1776325443237,4.29705,9.34395,7.182,12.251661,0.18865,-0.54408747,-0.583825,-6.8953196,109.4101356,34.39999771118164,0.0,15.454,0.0
1776325443249,6.4069505,6.597,4.5,10.6408415,0.5099875,-0.3972375,-1.07965,-6.8953196,109.4101356,34.39999771118164,0.0,15.454,0.0
1776325443250,12.990001,6.1930504,1.2400501,13.683439,0.5099875,-0.3972375,-1.07965,-6.8953196,109.4101356,34.39999771118164,0.0,15.454,0.0
1776325443252,1.1850001,12.292951,0.081,12.616847,0.5099875,-0.3972375,-1.07965,-6.8953196,109.4101356,34.39999771118164,0.0,15.454,0.0
1776325443257,-5.4090004,14.439001,2.5860002,15.030762,0.359975,-0.4409625,-0.8254125,-6.8953196,109.4101356,34.39999771118164,0.0,15.454,0.0
1776325443263,0.108,11.545051,3.4480503,12.6457,0.2600125,-0.7261375,-0.664675,-6.8953196,109.4101356,34.39999771118164,0.0,15.454,0.0
1776325443268,2.53395,10.674001,0.48105,11.3140955,0.296175,-0.851675,-0.65505,-6.8953196,109.4101356,34.39999771118164,0.0,15.454,0.0
1776325443285,9.774,9.696,-0.63405,13.288478,0.326975,-0.87615,-0.564575,-6.8953196,109.4101356,34.39999771118164,0.0,15.454,0.0
1776325443286,11.692051,9.90495,1.125,14.9495535,0.19607499,-0.8624,-0.8573125,-6.8953196,109.4101356,34.39999771118164,0.0,15.454,0.0
1776325443287,6.045,10.78905,2.6490002,13.108025,0.2365,-0.704825,-1.025475,-6.8953196,109.4101356,34.39999771118164,0.0,15.454,0.0
1776325443293,2.3400002,10.55895,1.659,11.374911,0.165275,-0.87615,-1.17975,-6.8953196,109.4101356,34.39999771118164,0.0,15.454,0.0
1776325443295,-1.5850501,11.410951,2.2339501,11.663068,0.165275,-0.87615,-1.17975,-6.8953196,109.4101356,34.39999771118164,0.0,15.454,0.0
1776325443302,-4.79895,9.802051,0.025950002,11.063645,0.28545,-0.916575,-1.1020625,-6.8953196,109.4101356,34.39999771118164,0.0,15.454,0.0
1776325443316,-0.39705002,8.607,3.8749502,9.770648,0.1621125,-1.1411124,-0.746625,-6.8953196,109.4101356,34.39999771118164,0.0,15.454,0.0
1776325443317,1.4899501,7.90005,8.79405,11.486091,0.1621125,-1.1411124,-0.746625,-6.8953196,109.4101356,34.39999771118164,0.0,15.454,0.0
1776325443317,8.064,6.1470003,9.94095,13.657111,0.1621125,-1.1411124,-0.746625,-6.8953196,109.4101356,34.39999771118164,0.0,15.454,0.0
1776325443327,14.691001,4.96605,1.0890001,15.168094,0.4536125,-1.197625,-0.9285375,-6.8953196,109.4101356,34.39999771118164,0.0,15.454,0.0
1776325443334,11.07705,8.500951,-3.8860502,14.628613,0.21945,-0.686675,-1.4319249,-6.8953196,109.4101356,34.39999771118164,0.0,15.454,0.0
1776325443336,-0.957,11.124001,-0.84195006,11.883155,0.21945,-0.686675,-1.4319249,-6.8953196,109.4101356,34.39999771118164,0.0,15.454,0.0
1776325443348,-10.324051,11.478001,6.9640503,15.925441,0.2376,-1.2423126,-0.665775,-6.8953196,109.4101356,34.39999771118164,0.0,15.454,0.0
1776325443348,-9.225,10.72095,7.05105,15.828043,0.2376,-1.2423126,-0.665775,-6.8953196,109.4101356,34.39999771118164,0.0,15.454,0.0
1776325443352,1.7170501,7.6459503,0.94095004,9.479743,0.2376,-1.2423126,-0.665775,-6.8953196,109.4101356,34.39999771118164,0.0,15.454,0.0
1776325443355,11.307,6.3240004,1.34595,12.316016,-0.0199375,-1.311475,-0.7104625,-6.8953196,109.4101356,34.39999771118164,0.0,15.454,0.0
1776325443358,12.50205,6.0610504,5.26905,14.350689,-0.0529375,-1.1209,-0.9466875,-6.8953196,109.4101356,34.39999771118164,0.0,15.454,0.0
1776325443367,7.1200504,4.87995,6.972,11.746816,0.066275,-0.8410875,-1.1573375,-6.8953196,109.4101356,34.39999771118164,0.0,15.454,0.0
1776325443371,-0.058950003,8.269051,8.74905,11.980199,0.1408,-0.918775,-1.34365,-6.8953196,109.4101356,34.39999771118164,0.0,15.454,0.0
1776325443376,-8.32905,11.60505,5.6449504,14.683679,0.3227125,-0.9059875,-1.302125,-6.8953196,109.4101356,34.39999771118164,0.0,15.454,0.0
1776325443378,-6.64305,11.02995,-1.779,13.335344,0.3067625,-1.1444125,-0.98175,-6.8953196,109.4101356,34.39999771118164,0.0,15.454,0.0
1776325443388,2.3059502,10.41705,1.041,11.242981,-0.033825,-1.2837,-0.845625,-6.8953196,109.4101356,34.39999771118164,0.0,15.454,0.0
1776325443405,2.361,9.744,6.7900505,11.93569,-0.17105,-1.2859,-0.9233125,-6.8953196,109.4101356,34.39999771118164,0.0,15.454,0.0
1776325443405,10.512,4.96605,5.7310505,12.756594,0.1684375,-1.1603625,-1.4309624,-6.8953196,109.4101356,34.39999771118164,0.0,15.454,0.0
1776325443406,14.896951,5.0209503,1.9519501,15.224168,0.2077625,-0.9794125,-1.5416499,-6.8953196,109.4101356,34.39999771118164,0.0,15.454,0.0
1776325443408,0.82395005,11.313001,2.55795,12.347082,0.2077625,-0.9794125,-1.5416499,-6.8953196,109.4101356,34.39999771118164,0.0,15.454,0.0
1776325443413,-6.111,12.067051,4.026,13.759532,0.2151875,-0.948475,-1.336225,-6.8953196,109.4101356,34.39999771118164,0.0,15.454,0.0
1776325443418,-4.926,12.4150505,2.8140001,13.6717615,0.065175,-1.3454375,-1.2744875,-6.8953196,109.4101356,34.39999771118164,0.0,15.454,0.0
1776325443437,-4.3170004,11.787001,-1.5589501,12.853647,0.1513875,-1.353,-1.0957375,-6.8953196,109.4101356,34.39999771118164,0.0,15.454,0.0
1776325443437,5.18295,9.28905,1.9990501,11.229436,-0.1859,-1.4933875,-0.9871125,-6.8953196,109.4101356,34.39999771118164,0.0,15.454,0.0
1776325443437,7.7980504,7.9120502,3.18705,11.491596,-0.0433125,-1.261425,-1.466025,-6.8953196,109.4101356,34.39999771118164,0.0,15.454,0.0
1776325443437,6.3630004,7.9549503,2.7850502,10.746771,-0.0433125,-1.261425,-1.466025,-6.8953196,109.4101356,34.39999771118164,0.0,15.454,0.0
1776325443437,0.85305005,10.5060005,3.5059502,11.036034,-0.0433125,-1.261425,-1.466025,-6.8953196,109.4101356,34.39999771118164,0.0,15.454,0.0
1776325443443,-6.5659504,11.505,4.16895,13.31704,-0.0433125,-1.261425,-1.466025,-6.8953196,109.4101356,34.39999771118164,0.0,15.454,0.0
1776325443446,-6.43905,8.724,2.637,11.59061,0.0364375,-1.2401125,-1.318075,-6.8953196,109.4101356,34.39999771118164,0.0,15.454,0.0
1776325443451,-4.164,7.7040005,7.7449503,11.670761,-0.1742125,-1.3869625,-1.1094875,-6.8953196,109.4101356,34.39999771118164,0.0,15.454,0.0
1776325443473,-1.6350001,7.8619504,10.95195,13.198515,-0.1816375,-1.4614875,-1.073325,-6.8953196,109.4101356,34.39999771118164,0.0,15.454,0.0
1776325443473,7.9609504,7.143,4.677,11.978603,-0.2222,-1.07415,-1.3925999,-6.8953196,109.4101356,34.39999771118164,0.0,15.454,0.0
1776325443474,12.49695,7.66095,-3.5299501,14.457547,-0.2222,-1.07415,-1.3925999,-6.8953196,109.4101356,34.39999771118164,0.0,15.454,0.0
1776325443474,4.5940504,9.531,-2.8330503,11.654028,-0.2222,-1.07415,-1.3925999,-6.8953196,109.4101356,34.39999771118164,0.0,15.454,0.0
1776325443474,-6.36495,9.250951,7.6470003,13.199308,-0.2222,-1.07415,-1.3925999,-6.8953196,109.4101356,34.39999771118164,0.0,15.454,0.0
1776325443476,-12.766951,9.694051,12.307951,18.808084,-0.2222,-1.07415,-1.3925999,-6.8953196,109.4101356,34.39999771118164,0.0,15.454,0.0
1776325443482,-6.39405,11.03505,4.77495,14.656206,0.295075,-1.59665,-0.744425,-6.8953196,109.4101356,34.39999771118164,0.0,15.454,0.0
1776325443487,6.7369504,8.923051,-4.5360003,12.583852,0.295075,-1.59665,-0.744425,-6.8953196,109.4101356,34.39999771118164,0.0,15.454,0.0
1776325443505,12.658051,7.35195,-0.60300004,14.237276,-0.0444125,-1.5742375,-0.75405,-6.8953196,109.4101356,34.39999771118164,0.0,15.454,0.0
1776325443505,7.9590006,6.7909503,7.8480005,13.310458,-0.261525,-1.49875,-0.9031,-6.8953196,109.4101356,34.39999771118164,0.0,15.454,0.0
1776325443505,1.296,5.8759503,8.99295,11.318357,0.002475,-1.0751125,-1.2904375,-6.8953196,109.4101356,34.39999771118164,0.0,15.454,0.0
1776325443511,-4.806,9.679951,7.2229505,12.662752,0.049225,-1.180575,-1.3734875,-6.8953196,109.4101356,34.39999771118164,0.0,15.454,0.0
1776325443516,-11.119051,10.942051,3.4720502,15.3179655,0.1172875,-1.2401125,-1.3937,-6.8953196,109.4101356,34.39999771118164,0.0,15.454,0.0
1776325443517,-6.6139503,8.84595,1.8700501,12.025459,0.1417625,-1.261425,-1.0679625,-6.8953196,109.4101356,34.39999771118164,0.0,15.454,0.0
1776325443522,0.441,8.892,5.12505,10.623249,-0.081675,-1.5263875,-0.8584125,-6.8953196,109.4101356,34.39999771118164,0.0,15.454,0.0
1776325443531,3.39105,8.346001,6.603,11.060137,-0.16995,-1.536975,-0.8679,-6.8953196,109.4101356,34.39999771118164,0.0,15.454,0.0
1776325443536,11.43105,5.8720503,3.6019502,12.889074,-0.055,-1.4487,-0.813725,-6.8953196,109.4101356,34.39999771118164,0.0,15.454,0.0
1776325443538,9.340051,8.22105,-1.70895,12.625469,0.1375,-1.374175,-0.9860125,-6.8953196,109.4101356,34.39999771118164,0.0,15.454,0.0
1776325443542,-3.4410002,11.81595,-0.52905005,12.379622,0.013062499,-0.88577497,-1.352175,-6.8953196,109.4101356,34.39999771118164,0.0,15.454,0.0
1776325443548,-12.1039505,10.765051,6.09705,16.322304,0.013062499,-0.88577497,-1.352175,-6.8953196,109.4101356,34.39999771118164,0.0,15.454,0.0
1776325443552,-13.653001,11.0779505,8.895,19.027637,-0.2072125,-1.2497375,-1.2489125,-6.8953196,109.4101356,34.39999771118164,0.0,15.454,0.0
1776325443574,-4.51905,9.505051,0.97200006,12.261062,0.050325,-1.5285875,-0.9244125,-6.8953196,109.4101356,34.39999771118164,0.0,15.454,0.0
1776325443575,8.00895,7.96995,-0.57900006,11.503131,0.050325,-1.5285875,-0.9244125,-6.8953196,109.4101356,34.39999771118164,0.0,15.454,0.0
1776325443575,9.463051,8.092051,1.7170501,12.355797,0.050325,-1.5285875,-0.9244125,-6.8953196,109.4101356,34.39999771118164,0.0,15.454,0.0
1776325443575,7.3500004,6.4440002,4.5859504,11.108885,0.0631125,-1.0135125,-1.1743875,-6.8953196,109.4101356,34.39999771118164,0.0,15.454,0.0
1776325443578,-1.8910501,9.19095,5.6280003,10.975255,0.0631125,-1.0135125,-1.1743875,-6.8953196,109.4101356,34.39999771118164,0.0,15.454,0.0
1776325443582,-11.392051,11.43,7.1080503,16.302027,-0.0933625,-1.128325,-1.352175,-6.8953196,109.4101356,34.39999771118164,0.0,15.454,0.0
1776325443587,-10.759951,8.952001,3.5989501,14.822199,0.1067,-1.1081125,-1.0872124,-6.8953196,109.4101356,34.39999771118164,0.0,15.454,0.0
1776325443603,-3.4740002,8.37705,1.91295,10.37915,-0.091299996,-1.4711125,-0.714725,-6.8953196,109.4101356,34.39999771118164,0.0,15.454,0.0
1776325443603,0.69405,9.0400505,3.6660001,9.899641,-0.091299996,-1.4711125,-0.714725,-6.8953196,109.4101356,34.39999771118164,0.0,15.454,0.0
1776325443607,6.3439503,6.741,5.6280003,10.646597,-0.10615,-1.3039125,-0.5944125,-6.8953196,109.4101356,34.39999771118164,0.0,15.454,0.0
1776325443612,8.706,6.9300003,3.6420002,11.495934,0.0067375,-1.1996875,-0.630575,-6.8953196,109.4101356,34.39999771118164,0.0,15.454,0.0
1776325443613,2.3040001,11.0140505,-0.56205004,11.312373,0.1172875,-1.196525,-0.993575,-6.8953196,109.4101356,34.39999771118164,0.0,15.454,0.0
1776325443617,-3.72795,10.83195,1.3120501,11.486799,0.1428625,-0.9123125,-1.023275,-6.8953196,109.4101356,34.39999771118164,0.0,15.454,0.0
1776325443638,-8.20395,10.273951,6.3850503,13.990168,-0.1018875,-0.9581,-1.0137875,-6.8953196,109.4101356,34.39999771118164,0.0,15.454,0.0
1776325443638,-7.431,9.972,6.4950004,14.022167,-0.161425,-1.2549624,-0.65505,-6.8953196,109.4101356,34.39999771118164,0.0,15.454,0.0
1776325443638,1.3219501,7.7230506,-0.47805002,9.084388,-0.161425,-1.2549624,-0.65505,-6.8953196,109.4101356,34.39999771118164,0.0,15.454,0.0
1776325443640,6.9810004,8.070001,1.3290001,10.419222,-0.161425,-1.2549624,-0.65505,-6.8953196,109.4101356,34.39999771118164,0.0,15.454,0.0
1776325443646,3.32205,9.229051,4.92105,10.863025,-0.095425,-1.07085,-0.8179875,-6.8953196,109.4101356,34.39999771118164,0.0,15.454,0.0
1776325443650,2.7540002,7.5600004,4.75605,9.649851,0.0853875,-0.9922,-0.925375,-6.8953196,109.4101356,34.39999771118164,0.0,15.454,0.0
1776325443656,-1.6560001,10.37895,2.4709501,10.567397,0.002475,-1.1507375,-1.075525,-6.8953196,109.4101356,34.39999771118164,0.0,15.454,0.0
1776325443660,-7.9530005,11.245951,4.76595,13.773624,-0.0561,-1.0912,-0.7062,-6.8953196,109.4101356,34.39999771118164,0.0,15.454,0.0
1776325443666,-6.5400004,6.918,5.2710004,11.460173,-0.0561,-1.0912,-0.7062,-6.8953196,109.4101356,34.39999771118164,0.0,15.454,0.0
1776325443670,-1.0339501,7.01595,4.701,9.098715,-0.087037496,-1.3050125,-0.68282497,-6.8953196,109.4101356,34.39999771118164,0.0,15.454,0.0
1776325443683,-0.55200005,8.6640005,4.8520503,9.776104,0.0375375,-1.0549,-0.6188875,-6.8953196,109.4101356,34.39999771118164,0.0,15.454,0.0
1776325443686,1.389,8.49195,3.38595,9.352829,0.1502875,-1.0241,-0.581625,-6.8953196,109.4101356,34.39999771118164,0.0,15.454,0.0
1776325443701,3.7410002,9.71595,-1.21095,10.255739,0.12485,-1.049675,-0.6945125,-6.8953196,109.4101356,34.39999771118164,0.0,15.454,0.0
1776325443703,-2.8200002,12.59895,-2.469,12.566872,0.1439625,-1.0506375,-0.4976125,-6.8953196,109.4101356,34.39999771118164,0.0,15.454,0.0
1776325443704,-7.0909505,10.192051,4.62405,13.112735,0.1439625,-1.0506375,-0.4976125,-6.8953196,109.4101356,34.39999771118164,0.0,15.454,0.0
1776325443704,-5.565,7.9260006,9.40995,13.425151,0.1439625,-1.0506375,-0.4976125,-6.8953196,109.4101356,34.39999771118164,0.0,15.454,0.0
1776325443717,-3.1890001,8.11095,4.41795,10.501957,0.1439625,-1.0506375,-0.4976125,-6.8953196,109.4101356,34.39999771118164,0.0,15.454,0.0
1776325443718,3.3790503,8.391001,-1.7839501,9.476433,-0.2083125,-0.9953625,-0.6348375,-6.8953196,109.4101356,34.39999771118164,0.0,15.454,0.0
1776325443718,2.5480502,10.053,2.40405,10.411994,-0.2083125,-0.9953625,-0.6348375,-6.8953196,109.4101356,34.39999771118164,0.0,15.454,0.0
1776325443722,-1.7520001,9.844951,6.2430005,11.513161,-0.0603625,-0.7739875,-0.566775,-6.8953196,109.4101356,34.39999771118164,0.0,15.454,0.0
1776325443727,-0.351,7.6009502,4.6000504,9.415802,0.0620125,-0.80808747,-0.5380375,-6.8953196,109.4101356,34.39999771118164,0.0,15.454,0.0
1776325443735,-2.5069501,10.09605,4.0300503,10.8079605,-0.1423125,-1.04225,-0.7030375,-6.8953196,109.4101356,34.39999771118164,0.0,15.454,0.0
1776325443737,-4.5210004,7.8859506,7.0069504,11.343314,-0.1423125,-1.04225,-0.7030375,-6.8953196,109.4101356,34.39999771118164,0.0,15.454,0.0
1776325443742,-1.434,6.7000504,5.06295,9.084198,0.052525,-0.97515,-0.46035,-6.8953196,109.4101356,34.39999771118164,0.0,15.454,0.0
1776325443753,1.21695,9.627001,2.35605,9.805274,0.0694375,-1.031525,-0.516725,-6.8953196,109.4101356,34.39999771118164,0.0,15.454,0.0
1776325443754,0.37095,10.798051,1.48905,10.686293,0.0386375,-0.7995625,-0.452925,-6.8953196,109.4101356,34.39999771118164,0.0,15.454,0.0
1776325443759,1.96905,9.186001,2.04705,9.82934,0.0386375,-0.7995625,-0.452925,-6.8953196,109.4101356,34.39999771118164,0.0,15.454,0.0
1776325443764,1.2240001,11.148001,-1.8870001,11.063977,0.0801625,-0.94215,-0.6274125,-6.8953196,109.4101356,34.39999771118164,0.0,15.454,0.0
1776325443772,-2.11395,11.500051,-1.1730001,11.613932,-0.30085,-0.7261375,-0.5625125,-6.8953196,109.4101356,34.39999771118164,0.0,15.454,0.0
1776325443772,-5.1600003,9.220051,6.52605,12.257752,-0.30085,-0.7261375,-0.5625125,-6.8953196,109.4101356,34.39999771118164,0.0,15.454,0.0
1776325443784,-4.4490004,8.920051,9.573001,13.507866,-0.127325,-0.9634625,-0.4987125,-6.8953196,109.4101356,34.39999771118164,0.0,15.454,0.0
1776325443785,-1.2090001,8.443951,2.5740001,9.829544,0.13859999,-0.9686875,-0.370975,-6.8953196,109.4101356,34.39999771118164,0.0,15.454,0.0
1776325443787,2.9310002,9.229051,-3.31395,10.153643,0.13859999,-0.9686875,-0.370975,-6.8953196,109.4101356,34.39999771118164,0.0,15.454,0.0
1776325443792,2.74005,9.8539505,2.76795,10.507322,-0.0561,-0.6686625,-0.4752,-6.8953196,109.4101356,34.39999771118164,0.0,15.454,0.0
1776325443796,-1.9459502,9.89295,7.5679502,12.186893,-0.0561,-0.6686625,-0.4752,-6.8953196,109.4101356,34.39999771118164,0.0,15.454,0.0
1776325443810,0.44505003,7.0669503,2.21295,8.372334,0.102437496,-0.817575,-0.3997125,-6.8953196,109.4101356,34.39999771118164,0.0,15.454,0.0
1776325443812,2.35695,9.33195,1.7550001,9.501417,-0.0507375,-0.8729875,-0.5231875,-6.8953196,109.4101356,34.39999771118164,0.0,15.454,0.0
1776325443817,-5.44995,10.156051,6.74595,12.584258,-0.0507375,-0.8729875,-0.5231875,-6.8953196,109.4101356,34.39999771118164,0.0,15.454,0.0
1776325443841,-3.1609502,8.805,3.3600001,10.469079,0.09295,-0.92193747,-0.3837625,-6.8953196,109.4101356,34.39999771118164,0.0,15.454,0.0
1776325443841,5.20695,8.7289505,-2.1739502,10.408928,0.09295,-0.92193747,-0.3837625,-6.8953196,109.4101356,34.39999771118164,0.0,15.454,0.0
1776325443841,-1.72395,10.03695,2.62905,10.496031,0.09295,-0.92193747,-0.3837625,-6.8953196,109.4101356,34.39999771118164,0.0,15.454,0.0
1776325443841,-0.85905004,8.161051,7.2850504,10.877823,0.09295,-0.92193747,-0.3837625,-6.8953196,109.4101356,34.39999771118164,0.0,15.454,0.0
1776325443841,4.1860504,8.67105,-0.44700003,9.886748,0.1461625,-1.0751125,-0.33165,-6.8953196,109.4101356,34.39999771118164,0.0,15.454,0.0
1776325443843,-2.5159502,13.437,-5.43795,13.747257,0.22275,-0.71115,-0.6348375,-6.8953196,109.4101356,34.39999771118164,0.0,15.454,0.0
1776325443847,-3.5029502,10.623,1.161,11.746045,-0.1881,-0.68035,-0.4560875,-6.8953196,109.4101356,34.39999771118164,0.0,15.454,0.0
1776325443852,-3.1369503,8.00805,10.243051,13.049172,-0.3817,-0.918775,-0.52635,-6.8953196,109.4101356,34.39999771118164,0.0,15.454,0.0
1776325443867,-4.31295,8.06805,8.49705,12.598463,0.12375,-0.801625,-0.39545,-6.8953196,109.4101356,34.39999771118164,0.0,15.454,0.0
1776325443869,4.1719503,8.403001,-1.2019501,10.086369,0.001375,-0.672925,-0.597575,-6.8953196,109.4101356,34.39999771118164,0.0,15.454,0.0
1776325443869,6.3439503,9.865951,-2.0299501,11.540413,0.001375,-0.672925,-0.597575,-6.8953196,109.4101356,34.39999771118164,0.0,15.454,0.0
1776325443874,-1.5820501,11.953051,3.0319502,12.25421,0.001375,-0.672925,-0.597575,-6.8953196,109.4101356,34.39999771118164,0.0,15.454,0.0
1776325443877,-2.2120502,9.328051,2.33505,10.344461,0.050325,-0.688875,-0.4785,-6.8953196,109.4101356,34.39999771118164,0.0,15.454,0.0
1776325443882,-0.73005,10.189951,3.59505,10.733024,-0.17105,-0.9794125,-0.5561875,-6.8953196,109.4101356,34.39999771118164,0.0,15.454,0.0
1776325443887,-4.65495,9.8209505,8.346001,13.109097,-0.0262625,-0.68145,-0.4709375,-6.8953196,109.4101356,34.39999771118164,0.0,15.454,0.0
1776325443905,1.19505,7.5720005,5.5350003,10.185926,0.05995,-0.7623,-0.355025,-6.8953196,109.4101356,34.39999771118164,0.0,15.454,0.0
1776325443906,7.932,7.7970004,-4.629,11.675028,0.001375,-0.6622,-0.616825,-6.8953196,109.4101356,34.39999771118164,0.0,15.454,0.0
1776325443908,2.3470502,10.9470005,-1.1539501,11.339079,0.001375,-0.6622,-0.616825,-6.8953196,109.4101356,34.39999771118164,0.0,15.454,0.0
1776325443913,-5.47695,9.724951,10.056001,14.28633,-0.23705,-0.6197125,-0.617925,-6.8953196,109.4101356,34.39999771118164,0.0,15.454,0.0
1776325443917,-1.932,8.928,9.07005,13.155464,0.0375375,-0.9772125,-0.4890875,-6.8953196,109.4101356,34.39999771118164,0.0,15.454,0.0
1776325443939,3.1210501,10.519951,-4.1719503,12.02268,0.49307498,-0.9197375,-0.42734998,-6.8953196,109.4101356,34.39999771118164,0.0,15.454,0.0
1776325443939,4.28895,11.14095,-7.3710003,13.628725,0.2993375,-0.8633625,-0.56787497,-6.8953196,109.4101356,34.39999771118164,0.0,15.454,0.0
1776325443939,1.3099501,8.476951,2.97195,9.988016,0.2993375,-0.8633625,-0.56787497,-6.8953196,109.4101356,34.39999771118164,0.0,15.454,0.0
1776325443940,-4.9350004,8.154,13.11495,14.967571,0.2993375,-0.8633625,-0.56787497,-6.8953196,109.4101356,34.39999771118164,0.0,15.454,0.0
1776325443944,-7.0189505,9.856951,6.162,13.856895,0.2993375,-0.8633625,-0.56787497,-6.8953196,109.4101356,34.39999771118164,0.0,15.454,0.0
1776325443948,3.4630501,11.0779505,-4.28595,12.669518,-0.0114124995,-0.752675,-0.4954125,-6.8953196,109.4101356,34.39999771118164,0.0,15.454,0.0
1776325443948,4.2390003,10.209001,-2.2410002,11.557071,-0.0114124995,-0.752675,-0.4954125,-6.8953196,109.4101356,34.39999771118164,0.0,15.454,0.0
1776325443953,-1.7400001,9.411,5.21595,11.031071,-0.23705,-0.78045,-0.59125,-6.8953196,109.4101356,34.39999771118164,0.0,15.454,0.0
1776325443969,1.4110501,6.3460503,5.3089504,8.920897,-0.031625,-0.8069875,-0.4987125,-6.8953196,109.4101356,34.39999771118164,0.0,15.454,0.0
1776325443970,-2.0010002,10.38105,7.3759503,12.096886,0.1419,-0.74745,-0.5115,-6.8953196,109.4101356,34.39999771118164,0.0,15.454,0.0
1776325443972,-6.1450505,11.089951,6.6000004,13.854304,0.2036375,-0.8932,-0.3465,-6.8953196,109.4101356,34.39999771118164,0.0,15.454,0.0
1776325443973,5.2930503,7.6369505,-1.7479501,10.334764,0.197175,-1.0346875,-0.3135,-6.8953196,109.4101356,34.39999771118164,0.0,15.454,0.0
1776325443978,5.56395,9.61005,-3.3619502,11.348791,0.02585,-0.8613,-0.632775,-6.8953196,109.4101356,34.39999771118164,0.0,15.454,0.0
1776325443982,-5.019,10.23795,5.7840004,12.497897,-0.20295,-0.6089875,-0.7093625,-6.8953196,109.4101356,34.39999771118164,0.0,15.454,0.0
1776325443988,-2.59095,7.0669503,12.4150505,14.11442,0.3141875,-0.918775,-0.62315,-6.8953196,109.4101356,34.39999771118164,0.0,15.454,0.0
1776325444003,-1.8000001,9.438001,4.85895,11.436371,0.3141875,-0.918775,-0.62315,-6.8953196,109.4101356,34.39999771118164,0.0,15.454,0.0
1776325444003,-0.294,13.477951,-6.08295,14.119269,0.3141875,-0.918775,-0.62315,-6.8953196,109.4101356,34.39999771118164,0.0,15.454,0.0
1776325444004,5.66895,10.10805,-6.282,13.3696995,-0.0529375,-0.8804125,-0.4785,-6.8953196,109.4101356,34.39999771118164,0.0,15.454,0.0
1776325444010,-0.528,8.27595,7.25895,11.490742,-0.490325,-0.7847125,-0.7711,-6.8953196,109.4101356,34.39999771118164,0.0,15.454,0.0
1776325444014,-7.6489506,6.8700004,12.937951,15.518592,-0.0273625,-0.637725,-0.6615125,-6.8953196,109.4101356,34.39999771118164,0.0,15.454,0.0
1776325444020,-0.231,8.467951,3.38595,10.401903,0.3004375,-0.883575,-0.6529875,-6.8953196,109.4101356,34.39999771118164,0.0,15.454,0.0
1776325444035,0.13905,12.328951,-4.6789503,12.630526,0.3004375,-0.883575,-0.6529875,-6.8953196,109.4101356,34.39999771118164,0.0,15.454,0.0
1776325444036,-2.7850502,12.594001,-1.04595,12.8785925,0.3004375,-0.883575,-0.6529875,-6.8953196,109.4101356,34.39999771118164,0.0,15.454,0.0
1776325444036,-0.069000006,7.8190503,2.6200502,9.173026,0.3004375,-0.883575,-0.6529875,-6.8953196,109.4101356,34.39999771118164,0.0,15.454,0.0
1776325444036,-0.75405,8.68605,8.943001,11.826387,-0.2817375,-0.88783747,-0.6285125,-6.8953196,109.4101356,34.39999771118164,0.0,15.454,0.0
1776325444042,-3.4669502,8.191951,9.88395,13.0031805,-0.097625,-0.7623,-0.6125625,-6.8953196,109.4101356,34.39999771118164,0.0,15.454,0.0
1776325444046,3.9829502,6.54195,2.84295,9.136366,0.147125,-0.8251375,-0.4125,-6.8953196,109.4101356,34.39999771118164,0.0,15.454,0.0
1776325444051,4.51905,9.946051,-4.28895,11.216317,0.26633748,-0.9922,-0.5476625,-6.8953196,109.4101356,34.39999771118164,0.0,15.454,0.0
1776325444056,-3.9799502,12.250051,1.5130501,12.618405,0.1205875,-0.69313747,-0.7381,-6.8953196,109.4101356,34.39999771118164,0.0,15.454,0.0
1776325444075,-5.53905,8.88195,10.176001,14.202616,-0.187,-0.5984,-0.6752625,-6.8953196,109.4101356,34.39999771118164,0.0,15.454,0.0
1776325444076,-0.84495,7.8499503,7.7070003,11.667156,-0.187,-0.5984,-0.6752625,-6.8953196,109.4101356,34.39999771118164,0.0,15.454,0.0
1776325444076,2.292,10.88895,-2.46405,11.4511175,-0.187,-0.5984,-0.6752625,-6.8953196,109.4101356,34.39999771118164,0.0,15.454,0.0
1776325444079,4.0069504,11.121,-6.1860003,12.963522,-0.1529,-0.8261,-0.6997375,-6.8953196,109.4101356,34.39999771118164,0.0,15.454,0.0
1776325444082,0.201,9.615001,3.04605,10.663077,-0.1529,-0.8261,-0.6997375,-6.8953196,109.4101356,34.39999771118164,0.0,15.454,0.0
1776325444086,-8.80095,8.13195,10.870951,15.075886,-0.2954875,-0.58245,-0.803,-6.8953196,109.4101356,34.39999771118164,0.0,15.454,0.0
1776325444096,-5.20305,9.117001,6.74595,12.9975395,0.0545875,-0.753775,-0.68915,-6.8953196,109.4101356,34.39999771118164,0.0,15.454,0.0
1776325444098,0.83805007,9.67695,-0.8880001,10.402451,0.0545875,-0.753775,-0.68915,-6.8953196,109.4101356,34.39999771118164,0.0,15.454,0.0
1776325444106,-0.25500003,10.719001,0.46905002,10.666321,0.1695375,-0.869825,-0.5614125,-6.8953196,109.4101356,34.39999771118164,0.0,15.454,0.0
1776325444106,-0.04695,7.9290004,0.94605005,8.521566,0.1695375,-0.869825,-0.5614125,-6.8953196,109.4101356,34.39999771118164,0.0,15.454,0.0
1776325444119,0.711,9.33195,6.5520005,10.843925,0.0386375,-0.7623,-0.52635,-6.8953196,109.4101356,34.39999771118164,0.0,15.454,0.0
1776325444119,-5.7109504,9.265051,9.63,13.794771,0.0386375,-0.7623,-0.52635,-6.8953196,109.4101356,34.39999771118164,0.0,15.454,0.0
1776325444122,0.59895,6.63105,5.1940503,9.514466,0.0386375,-0.7623,-0.52635,-6.8953196,109.4101356,34.39999771118164,0.0,15.454,0.0
1776325444127,5.322,7.419,-3.5010002,9.725824,0.2440625,-0.948475,-0.4794625,-6.8953196,109.4101356,34.39999771118164,0.0,15.454,0.0
1776325444140,-3.759,11.215051,2.1460502,11.562248,0.1183875,-0.69629997,-0.7167875,-6.8953196,109.4101356,34.39999771118164,0.0,15.454,0.0
1776325444142,-7.3810506,9.364051,10.67895,15.117581,-0.128425,-0.5388625,-0.7423625,-6.8953196,109.4101356,34.39999771118164,0.0,15.454,0.0
1776325444151,-1.2970501,8.04405,7.15395,11.697823,0.17379999,-0.8325625,-0.49445,-6.8953196,109.4101356,34.39999771118164,0.0,15.454,0.0
1776325444152,0.80205005,11.586,-5.92005,12.768008,0.0853875,-0.753775,-0.5528875,-6.8953196,109.4101356,34.39999771118164,0.0,15.454,0.0
1776325444157,3.1660502,12.099001,-8.586,14.689608,0.0853875,-0.753775,-0.5528875,-6.8953196,109.4101356,34.39999771118164,0.0,15.454,0.0
1776325444160,-1.4620501,8.499001,4.3320003,10.658516,-0.4934875,-0.575025,-0.730675,-6.8953196,109.4101356,34.39999771118164,0.0,15.454,0.0
1776325444165,-9.87405,7.5150003,17.862001,19.53098,-0.3147375,-0.49513748,-0.6997375,-6.8953196,109.4101356,34.39999771118164,0.0,15.454,0.0
1776325444172,-6.3120003,7.9429502,8.739,14.61849,0.3323375,-0.8166125,-0.468875,-6.8953196,109.4101356,34.39999771118164,0.0,15.454,0.0
1776325444176,5.22795,10.51305,-4.75605,13.058019,0.411125,-0.8921,-0.335775,-6.8953196,109.4101356,34.39999771118164,0.0,15.454,0.0
1776325444185,3.4609501,10.879951,-5.18205,12.642121,0.09295,-0.543125,-0.5476625,-6.8953196,109.4101356,34.39999771118164,0.0,15.454,0.0
1776325444190,-2.1430502,8.97105,5.4820504,11.112141,-0.3306875,-0.4153875,-0.6125625,-6.8953196,109.4101356,34.39999771118164,0.0,15.454,0.0
1776325444203,-4.5540004,6.69495,10.2289505,12.659063,-0.1423125,-0.5707625,-0.565675,-6.8953196,109.4101356,34.39999771118164,0.0,15.454,0.0
1776325444204,-6.708,10.50405,12.64095,16.733242,-0.1423125,-0.5707625,-0.565675,-6.8953196,109.4101356,34.39999771118164,0.0,15.454,0.0
1776325444210,-3.8170502,10.23495,4.998,12.956779,0.2578125,-0.6197125,-0.29755,-6.8953196,109.4101356,34.39999771118164,0.0,15.454,0.0
1776325444216,8.260051,6.4540505,-4.0609503,11.584671,0.2099625,-0.670725,-0.207075,-6.8953196,109.4101356,34.39999771118164,0.0,15.454,0.0
1776325444220,4.5940504,7.56195,-0.031050002,9.395436,-0.1018875,-0.3152875,-0.551925,-6.8953196,109.4101356,34.39999771118164,0.0,15.454,0.0
1776325444239,-9.10005,9.691951,11.56305,15.974737,-0.1816375,-0.1397,-0.6752625,-6.8953196,109.4101356,34.39999771118164,0.0,15.454,0.0
1776325444239,-5.8720503,8.809951,11.236951,15.546213,-0.1816375,-0.1397,-0.6752625,-6.8953196,109.4101356,34.39999771118164,0.0,15.454,0.0
1776325444240,-0.53595,11.44995,-3.66105,12.735603,0.5633375,-0.4877125,-0.3496625,-6.8953196,109.4101356,34.39999771118164,0.0,15.454,0.0
1776325444243,0.53400004,14.392951,-11.971951,17.530201,0.311025,-0.3812875,-0.3348125,-6.8953196,109.4101356,34.39999771118164,0.0,15.454,0.0
1776325444247,1.485,9.567,-3.9390001,11.867799,-0.36685,-0.2184875,-0.3645125,-6.8953196,109.4101356,34.39999771118164,0.0,15.454,0.0
1776325444256,-6.255,6.3480005,13.432951,15.2698555,-0.6414375,-0.18975,-0.55825,-6.8953196,109.4101356,34.39999771118164,0.0,15.454,0.0
1776325444272,-10.012951,6.30705,16.59,19.356436,0.002475,-0.1758625,-0.36781248,-6.8953196,109.4101356,34.39999771118164,0.0,15.454,0.0
1776325444272,1.0180501,8.923051,1.1539501,11.115104,-0.1997875,-0.134475,-0.3997125,-6.8953196,109.4101356,34.39999771118164,0.0,15.454,0.0
1776325444273,5.1589503,11.533051,-8.66205,14.477839,-0.1997875,-0.134475,-0.3997125,-6.8953196,109.4101356,34.39999771118164,0.0,15.454,0.0
1776325444279,0.29205,11.365951,-1.8169501,12.106742,-0.1997875,-0.134475,-0.3997125,-6.8953196,109.4101356,34.39999771118164,0.0,15.454,0.0
1776325444281,-3.8070002,7.3230004,9.117001,12.2597,-0.3700125,-0.0290125,-0.4136,-6.8953196,109.4101356,34.39999771118164,0.0,15.454,0.0
1776325444282,-5.0719504,7.9099503,12.250051,14.802959,-0.16885,-0.28985,-0.3826625,-6.8953196,109.4101356,34.39999771118164,0.0,15.454,0.0
1776325444291,-2.8920002,9.249001,6.1810503,12.155828,0.2674375,-0.1791625,-0.237875,-6.8953196,109.4101356,34.39999771118164,0.0,15.454,0.0
1776325444291,3.0370502,8.6310005,-1.7569501,9.884689,0.2674375,-0.1791625,-0.237875,-6.8953196,109.4101356,34.39999771118164,0.0,15.454,0.0
1776325444305,3.8800502,8.602051,-3.7399502,10.097521,0.050325,-0.1791625,-0.3443,-6.8953196,109.4101356,34.39999771118164,0.0,15.454,0.0
1776325444306,-3.2370002,9.838051,5.15595,11.274963,0.2173875,-0.2195875,-0.1612875,-6.8953196,109.4101356,34.39999771118164,0.0,15.454,0.0
1776325444306,-6.8580003,9.534,11.158051,15.214781,0.2173875,-0.2195875,-0.1612875,-6.8953196,109.4101356,34.39999771118164,0.0,15.454,0.0
1776325444309,0.120000005,7.9480505,3.561,10.011072,0.2173875,-0.2195875,-0.1612875,-6.8953196,109.4101356,34.39999771118164,0.0,15.454,0.0
1776325444312,3.5730002,10.306951,-8.451,13.041604,-0.00605,-0.019524999,-0.42734998,-6.8953196,109.4101356,34.39999771118164,0.0,15.454,0.0
1776325444313,0.01905,12.606001,-8.514,14.777786,-0.00605,-0.019524999,-0.42734998,-6.8953196,109.4101356,34.39999771118164,0.0,15.454,0.0
1776325444321,-6.2359505,9.47805,3.93705,12.562918,-0.520025,0.0900625,-0.46254998,-6.8953196,109.4101356,34.39999771118164,0.0,15.454,0.0
1776325444322,-9.490951,6.5610003,15.451951,17.940094,-0.4582875,-0.019524999,-0.352825,-6.8953196,109.4101356,34.39999771118164,0.0,15.454,0.0
1776325444337,-5.124,7.3009505,11.956051,15.5213375,-0.4582875,-0.019524999,-0.352825,-6.8953196,109.4101356,34.39999771118164,0.0,15.454,0.0
1776325444337,3.3240001,9.184051,-5.21595,11.962328,-0.4582875,-0.019524999,-0.352825,-6.8953196,109.4101356,34.39999771118164,0.0,15.454,0.0
1776325444340,9.228001,9.877951,-8.545051,15.186159,0.052525,-0.013062499,-0.141075,-6.8953196,109.4101356,34.39999771118164,0.0,15.454,0.0
1776325444341,-2.2050002,9.13605,1.8940501,10.707094,-0.40301248,0.2189,-0.5391375,-6.8953196,109.4101356,34.39999771118164,0.0,15.454,0.0
1776325444346,-10.300051,7.8210006,12.922951,16.767681,-0.36795,0.3221625,-0.3773,-6.8953196,109.4101356,34.39999771118164,0.0,15.454,0.0
1776325444351,-7.9939504,8.52,7.01205,14.254179,0.131175,0.0017875,-0.223025,-6.8953196,109.4101356,34.39999771118164,0.0,15.454,0.0
1776325444356,-5.505,14.527051,0.97905004,15.303596,0.017324999,0.0273625,0.12925,-6.8953196,109.4101356,34.39999771118164,0.0,15.454,0.0
1776325444371,0.50295,9.580951,-5.23005,11.802381,0.017324999,0.0273625,0.12925,-6.8953196,109.4101356,34.39999771118164,0.0,15.454,0.0
1776325444373,8.964001,5.20305,1.0200001,10.692216,0.017324999,0.0273625,0.12925,-6.8953196,109.4101356,34.39999771118164,0.0,15.454,0.0
1776325444373,-1.9750501,6.537,9.879001,11.746036,0.09295,0.2902625,-0.24007499,-6.8953196,109.4101356,34.39999771118164,0.0,15.454,0.0
1776325444377,-6.43695,9.129001,10.606951,14.672334,0.09295,0.2902625,-0.24007499,-6.8953196,109.4101356,34.39999771118164,0.0,15.454,0.0
1776325444382,-1.2349501,10.609051,-1.6330501,11.578314,0.3312375,0.1241625,-0.1783375,-6.8953196,109.4101356,34.39999771118164,0.0,15.454,0.0
1776325444388,-4.032,15.02805,-9.0720005,16.72456,0.213125,0.162525,-0.2858625,-6.8953196,109.4101356,34.39999771118164,0.0,15.454,0.0
1776325444403,-4.87095,13.272,-3.97305,15.093132,-0.3839,0.13805,-0.117699996,-6.8953196,109.4101356,34.39999771118164,0.0,15.454,0.0
1776325444404,-2.7630002,7.05495,7.5510006,11.576162,-0.3839,0.13805,-0.117699996,-6.8953196,109.4101356,34.39999771118164,0.0,15.454,0.0
1776325444404,-3.49095,5.4090004,15.208051,15.526835,-0.3839,0.13805,-0.117699996,-6.8953196,109.4101356,34.39999771118164,0.0,15.454,0.0
1776325444406,-1.3429501,5.97195,6.9310503,10.502974,0.298375,0.2508,-0.0325875,-6.8953196,109.4101356,34.39999771118164,0.0,15.454,0.0
1776325444412,3.97305,10.662001,-6.6070504,12.626495,0.330275,-0.02475,-0.1293875,-6.8953196,109.4101356,34.39999771118164,0.0,15.454,0.0
1776325444417,-0.75105006,12.714001,-6.5470505,13.981616,-0.0028875,0.455125,-0.26345,-6.8953196,109.4101356,34.39999771118164,0.0,15.454,0.0
1776325444437,-8.865001,10.8820505,5.142,14.75485,-0.4923875,0.4115375,-0.238975,-6.8953196,109.4101356,34.39999771118164,0.0,15.454,0.0
1776325444439,-6.11805,5.9989505,9.75,13.334972,0.1791625,0.2220625,-0.0218625,-6.8953196,109.4101356,34.39999771118164,0.0,15.454,0.0
1776325444441,-0.813,8.03205,6.387,10.902277,-0.1188,0.1667875,0.0653125,-6.8953196,109.4101356,34.39999771118164,0.0,15.454,0.0
1776325444441,-0.86595005,10.815001,0.31305,10.863758,-0.1188,0.1667875,0.0653125,-6.8953196,109.4101356,34.39999771118164,0.0,15.454,0.0
1776325444443,5.532,7.6200004,-2.9929502,10.0771885,-0.1188,0.1667875,0.0653125,-6.8953196,109.4101356,34.39999771118164,0.0,15.454,0.0
1776325444447,3.7600503,7.1410503,1.6710001,8.608759,-0.258225,0.342375,-0.2336125,-6.8953196,109.4101356,34.39999771118164,0.0,15.454,0.0
1776325444452,-7.63005,8.905951,8.31795,13.224014,-0.1975875,0.539275,-0.3188625,-6.8953196,109.4101356,34.39999771118164,0.0,15.454,0.0
1776325444457,-6.3769503,9.031051,5.946,12.687283,0.0078375,0.258225,-0.1538625,-6.8953196,109.4101356,34.39999771118164,0.0,15.454,0.0
1776325444474,-3.8380501,10.96605,-1.266,11.887115,-0.29975,0.1241625,0.0334125,-6.8953196,109.4101356,34.39999771118164,0.0,15.454,0.0
1776325444474,-6.1470003,14.059951,-4.87305,15.257534,-0.29975,0.1241625,0.0334125,-6.8953196,109.4101356,34.39999771118164,0.0,15.454,0.0
1776325444478,-0.61695004,12.0720005,-1.94895,12.8466,-0.29975,0.1241625,0.0334125,-6.8953196,109.4101356,34.39999771118164,0.0,15.454,0.0
1776325444478,1.2570001,7.0189505,4.83795,9.462864,-0.5137,0.1571625,-0.0793375,-6.8953196,109.4101356,34.39999771118164,0.0,15.454,0.0
1776325444486,-2.09505,5.3899503,11.814,12.415277,-0.2784375,0.3881625,-0.1282875,-6.8953196,109.4101356,34.39999771118164,0.0,15.454,0.0
1776325444493,-2.6790001,6.4339504,4.881,9.289967,0.1397,0.20185,-0.1868625,-6.8953196,109.4101356,34.39999771118164,0.0,15.454,0.0
1776325444493,-2.11605,11.050051,-0.78495,10.880541,0.167475,0.29975,-0.1868625,-6.8953196,109.4101356,34.39999771118164,0.0,15.454,0.0
1776325444508,-9.16695,12.25695,-0.85200006,14.43966,0.167475,0.29975,-0.1868625,-6.8953196,109.4101356,34.39999771118164,0.0,15.454,0.0
1776325444508,-6.60195,9.780001,3.73305,12.788876,-0.0411125,0.2402125,-0.009075,-6.8953196,109.4101356,34.39999771118164,0.0,15.454,0.0
1776325444508,-1.21095,7.3009505,4.25295,9.386321,-0.0411125,0.2402125,-0.009075,-6.8953196,109.4101356,34.39999771118164,0.0,15.454,0.0
1776325444513,-1.4580001,9.679951,4.953,10.653939,-0.0411125,0.2402125,-0.009075,-6.8953196,109.4101356,34.39999771118164,0.0,15.454,0.0
1776325444522,1.8319501,7.8949504,-0.23895001,8.617371,0.0226875,0.1997875,0.054725,-6.8953196,109.4101356,34.39999771118164,0.0,15.454,0.0
1776325444524,4.6320004,7.5390005,-1.2780001,8.875548,-0.079475,0.5115,-0.3081375,-6.8953196,109.4101356,34.39999771118164,0.0,15.454,0.0
1776325444539,-5.23005,9.603001,1.6210501,10.618596,-0.079475,0.5115,-0.3081375,-6.8953196,109.4101356,34.39999771118164,0.0,15.454,0.0
1776325444539,-8.335951,10.401,4.011,13.259449,0.0215875,0.276375,-0.03355,-6.8953196,109.4101356,34.39999771118164,0.0,15.454,0.0
1776325444539,-6.5950503,10.747951,1.4059501,12.802431,0.0215875,0.276375,-0.03355,-6.8953196,109.4101356,34.39999771118164,0.0,15.454,0.0
1776325444543,-6.918,11.691001,-1.04805,13.460369,0.0215875,0.276375,-0.03355,-6.8953196,109.4101356,34.39999771118164,0.0,15.454,0.0
1776325444549,-1.8700501,11.8279505,-0.27495003,12.274494,-0.17105,0.0666875,0.052525,-6.8953196,109.4101356,34.39999771118164,0.0,15.454,0.0
1776325444553,1.1400001,8.27595,1.45095,9.23823,-0.3221625,0.1188,-0.0240625,-6.8953196,109.4101356,34.39999771118164,0.0,15.454,0.0
1776325444557,-0.078,6.7770004,7.1970005,9.7563505,-0.2976875,0.259325,-0.09955,-6.8953196,109.4101356,34.39999771118164,0.0,15.454,0.0
1776325444569,-4.533,7.04295,6.4420505,10.404482,-0.0262625,0.2954875,-0.23265,-6.8953196,109.4101356,34.39999771118164,0.0,15.454,0.0
1776325444570,-3.93705,9.90495,2.2030501,10.788111,0.05995,0.3529625,-0.16775,-6.8953196,109.4101356,34.39999771118164,0.0,15.454,0.0
1776325444573,-6.31995,10.174951,-0.08805001,11.740245,0.05995,0.3529625,-0.16775,-6.8953196,109.4101356,34.39999771118164,0.0,15.454,0.0
1776325444578,-7.4089503,9.708,2.526,12.324614,-0.23375,0.14973749,-0.077275,-6.8953196,109.4101356,34.39999771118164,0.0,15.454,0.0
1776325444583,-3.4770002,6.9090004,3.6499503,9.306955,-0.1551,0.1582625,0.02915,-6.8953196,109.4101356,34.39999771118164,0.0,15.454,0.0
1776325444589,-2.83695,9.213,7.22805,11.500391,-0.160325,0.144375,-0.026124999,-6.8953196,109.4101356,34.39999771118164,0.0,15.454,0.0
1776325444593,-2.157,8.302951,3.2899501,9.650307,0.044,0.1252625,0.0419375,-6.8953196,109.4101356,34.39999771118164,0.0,15.454,0.0
1776325444602,5.92995,6.195,-0.684,8.812395,-0.0336875,0.046475,0.0686125,-6.8953196,109.4101356,34.39999771118164,0.0,15.454,0.0
1776325444607,0.582,7.58895,0.321,7.856879,-0.0741125,0.30621248,-0.2464,-6.8953196,109.4101356,34.39999771118164,0.0,15.454,0.0
1776325444620,-7.464,9.283951,5.1919503,11.967049,-0.1167375,0.3806,-0.2517625,-6.8953196,109.4101356,34.39999771118164,0.0,15.454,0.0
1776325444621,-7.60305,9.62205,4.026,12.719266,0.134475,0.177375,-0.1166,-6.8953196,109.4101356,34.39999771118164,0.0,15.454,0.0
1776325444621,-8.607,12.034051,-0.57900006,14.389097,0.134475,0.177375,-0.1166,-6.8953196,109.4101356,34.39999771118164,0.0,15.454,0.0
1776325444629,-5.3260503,13.567051,-2.6940002,14.735355,0.013062499,0.00825,0.0484,-6.8953196,109.4101356,34.39999771118164,0.0,15.454,0.0
1776325444630,1.593,9.682051,-0.29205,10.800327,0.013062499,0.00825,0.0484,-6.8953196,109.4101356,34.39999771118164,0.0,15.454,0.0
1776325444632,2.16,6.1090503,6.84705,9.701659,-0.2943875,0.17105,-0.1357125,-6.8953196,109.4101356,34.39999771118164,0.0,15.454,0.0
1776325444640,-2.2069502,5.86005,8.116051,10.141057,-0.2943875,0.17105,-0.1357125,-6.8953196,109.4101356,34.39999771118164,0.0,15.454,0.0
1776325444641,-2.63595,9.883051,2.56005,10.463445,0.1387375,0.113575,-0.2347125,-6.8953196,109.4101356,34.39999771118164,0.0,15.454,0.0
1776325444655,-7.347,12.40995,-1.4650501,13.6894245,0.149325,0.154,-0.257125,-6.8953196,109.4101356,34.39999771118164,0.0,15.454,0.0
1776325444655,-9.024,10.995001,1.626,14.191206,-0.2699125,0.115637496,-0.0155375,-6.8953196,109.4101356,34.39999771118164,0.0,15.454,0.0
1776325444657,-5.589,6.8149505,5.31405,11.071622,-0.2699125,0.115637496,-0.0155375,-6.8953196,109.4101356,34.39999771118164,0.0,15.454,0.0
1776325444665,-4.81995,8.65005,10.285951,13.636578,-0.2849,-0.0471625,-0.0537625,-6.8953196,109.4101356,34.39999771118164,0.0,15.454,0.0
1776325444667,-2.50005,6.9330006,6.29895,10.483336,-0.0677875,0.0273625,0.0111375,-6.8953196,109.4101356,34.39999771118164,0.0,15.454,0.0
