timestamp,ax,ay,az,gx,gy,gz,lin_ax,lin_ay,lin_az,grav_x,grav_y,grav_z,speed,lat,lon
1779785009399,2.0329502,9.61005,-0.89805007,-0.1500125,0.056925,-0.0479875,0.3071801,-1.4539251,1.8945813,0.84181994,9.547926,2.0733688,0.060199983,-6.8971935,109.407052
1779785009399,1.149,8.094001,3.96795,-0.1500125,0.056925,-0.0479875,0.3071801,-1.4539251,1.8945813,0.84181994,9.547926,2.0733688,0.060199983,-6.8971935,109.407052
1779785009405,-1.7310001,9.220051,6.6600003,-0.1500125,0.056925,-0.0479875,-2.562216,-0.32393932,4.5643525,0.831216,9.54399,2.0956478,0.060199983,-6.8971935,109.407052
1779785009412,0.060000002,10.6380005,1.8559501,0.1106875,0.022824999,0.01265,-2.562216,-0.32393932,4.5643525,0.831216,9.54399,2.0956478,0.060199983,-6.8971935,109.407052
1779785009421,1.01505,10.518001,-0.48795003,0.1203125,-0.0548625,0.0339625,-0.76513666,1.0924759,-0.23510623,0.8297395,9.550118,2.068133,0.060199983,-6.8971935,109.407052
1779785009421,0.89295006,8.66205,2.3040001,0.1203125,-0.0548625,0.0339625,-0.76513666,1.0924759,-0.23510623,0.8297395,9.550118,2.068133,0.060199983,-6.8971935,109.407052
1779785009430,2.2390501,8.5990505,3.2899501,-0.070125,-0.0218625,0.0306625,0.06321055,-0.8880682,0.23586702,0.8471131,9.543998,2.0892355,0.060199983,-6.8971935,109.407052
1779785009430,0.55305004,10.450951,2.56005,0.090475,0.0526625,-0.0427625,-0.29406303,0.90695286,0.47081447,0.8471131,9.543998,2.0892355,0.060199983,-6.8971935,109.407052
1779785234574,1.36695,8.976001,2.4859502,-0.1967625,-0.080575,0.089375,-0.23325787,-0.22755527,0.15503907,0.32285884,9.514014,2.3557851,0.0,-6.9012341,109.4055195
1779785234575,-0.675,10.288051,2.08095,-0.1967625,-0.080575,0.089375,-0.62885886,0.16098595,-0.9858351,0.32285884,9.514014,2.3557851,0.0,-6.9012341,109.4055195
1779785234575,-0.30600002,9.675,1.36995,-0.1967625,-0.080575,0.089375,-0.62885886,0.16098595,-0.9858351,0.32285884,9.514014,2.3557851,0.0,-6.9012341,109.4055195
1779785234588,0.31395,8.773951,4.63905,0.1139875,0.0204875,0.0191125,-0.018130928,-0.73616886,2.2688744,0.33208093,9.510119,2.3701756,0.0,-6.9012341,109.4055195
1779785234590,0.88395005,9.8880005,1.02495,0.1139875,0.0204875,0.0191125,-0.018130928,-0.73616886,2.2688744,0.33207676,9.511242,2.3656683,0.0,-6.9012341,109.4055195
1779785234599,0.165,9.568951,2.979,-0.045649998,0.0386375,-0.0033,0.5518733,0.37675858,-1.3407183,0.33393437,9.511527,2.3642614,0.0,-6.9012341,109.4055195
1779785234609,0.057000004,9.93795,1.9759501,0.0374,-0.0231,0.056375,-0.16893436,0.05742359,0.6147387,0.33534795,9.511252,2.3651667,0.0,-6.9012341,109.4055195
1779785234620,-0.52395004,9.865951,2.67195,-0.04235,0.034375,-0.05115,-0.85442513,0.35448265,0.3069687,0.3304751,9.511468,2.3649814,0.0,-6.9012341,109.4055195
1779785234630,1.3960501,9.20505,2.4469502,0.047025,-0.064625,0.056375,-0.85442513,0.35448265,0.3069687,0.3304751,9.511468,2.3649814,0.0,-6.9012341,109.4055195
1779785234641,0.24705002,9.423,2.43495,-0.11055,0.013062499,-0.0160875,1.0584395,-0.306324,0.08259773,0.33763593,9.509839,2.3705115,0.0,-6.9012341,109.4055195
1779785234649,-1.19895,10.50405,0.67305005,0.2066625,0.0386375,-0.0724625,-0.09058592,-0.08683872,0.06443858,0.33181226,9.51332,2.357337,0.0,-6.9012341,109.4055195
1779785234660,0.57705003,8.08905,5.43195,0.1799875,0.0438625,-0.011825,0.24001676,-1.4180555,3.0504098,0.33703327,9.507106,2.3815403,0.0,-6.9012341,109.4055195
1779785234674,0.57705003,10.269,0.75195,-0.0710875,0.0215875,0.0350625,0.23971236,0.76028347,-1.6231103,0.33703327,9.507106,2.3815403,0.0,-6.9012341,109.4055195
1779785234679,0.33795002,9.505051,2.62905,-0.0710875,0.0215875,0.0350625,0.23971236,0.76028347,-1.6231103,0.33989984,9.50913,2.373043,0.0,-6.9012341,109.4055195
1779785234690,-0.13800001,9.972,2.466,0.044825,-0.031625,0.0424875,-0.001949817,-0.004078865,0.25600696,0.3397225,9.508622,2.3751042,0.0,-6.9012341,109.4055195
1779785234700,-0.27495003,9.816001,2.08095,-0.0488125,0.0545875,-0.0776875,-0.47772253,0.46337795,0.09089589,0.3324306,9.508921,2.3749347,0.0,-6.9012341,109.4055195
1779785234710,0.75195,9.61005,2.73,0.0672375,-0.097625,0.073425,-0.6073806,0.30708027,-0.29398465,0.34139836,9.509265,2.3722844,0.0,-6.9012341,109.4055195
1779785234722,0.94395006,9.01395,2.26095,-0.1392875,0.0088,-0.0224125,0.41055167,0.100785255,0.3577156,0.34006295,9.507082,2.3812077,0.0,-6.9012341,109.4055195
1779785234735,-1.8049501,10.812,0.78300005,0.2321,0.033275,-0.08415,0.6038871,-0.49313164,-0.120257616,0.33600166,9.511063,2.365835,0.0,-6.9012341,109.4055195
1779785234747,0.546,8.073,5.24205,-0.2872375,-0.0763125,0.0669625,0.2076889,-1.4315748,2.8506103,0.3383111,9.504575,2.39144,0.0,-6.9012341,109.4055195
1779785234755,1.1230501,9.967051,0.86895007,0.1023,-0.047575,0.0094875,0.2076889,-1.4315748,2.8506103,0.34555846,9.508289,2.3755853,0.0,-6.9012341,109.4055195
1779785234761,-0.41805002,9.8230505,2.8330503,-0.0499125,-0.0188375,-0.0383625,0.7774916,0.45876122,-1.5066352,0.33873,9.506233,2.3847868,0.0,-6.9012341,109.4055195
1779785234780,-0.04695,9.55305,2.3730001,0.109725,-0.034925,0.0339625,-0.75678,0.31681728,0.4482634,0.3614386,9.511536,2.3601778,0.0,-6.9012341,109.4055195
1779785234797,0.62505,9.543,2.3040001,-0.1722875,-0.031625,-0.0064625,-0.4083886,0.041514397,0.01282239,0.36085057,9.51095,2.3626235,0.0,-6.9012341,109.4055195
1779785234800,-0.126,9.411,2.397,0.208725,0.0609125,-0.1192125,0.26419944,0.032050133,-0.058623314,0.36085057,9.51095,2.3626235,0.0,-6.9012341,109.4055195
1779785234923,-0.89205,9.832951,1.87995,-0.1051875,-0.0433125,0.0339625,-0.48082852,-0.101638794,0.040277958,0.35344768,9.5112095,2.3627076,0.0,-6.9012341,109.4055195
1779785234925,0.31395,8.868,4.038,0.0576125,0.0353375,-0.0341,-1.2454977,0.3217411,-0.48275757,0.36079934,9.510268,2.365386,0.0,-6.9012341,109.4055195
1779785234925,0.81900007,9.768001,1.9660501,0.0576125,0.0353375,-0.0341,-1.2454977,0.3217411,-0.48275757,0.36079934,9.510268,2.365386,0.0,-6.9012341,109.4055195
1779785234925,0.46905002,9.723001,1.5319501,0.0576125,0.0353375,-0.0341,-1.2454977,0.3217411,-0.48275757,0.36079934,9.510268,2.365386,0.0,-6.9012341,109.4055195
1779785234925,-1.113,10.192051,3.18495,0.0576125,0.0353375,-0.0341,-1.2454977,0.3217411,-0.48275757,0.36079934,9.510268,2.365386,0.0,-6.9012341,109.4055195
1779785234925,0.42900002,9.342,2.3440502,0.0576125,0.0353375,-0.0341,-1.2454977,0.3217411,-0.48275757,0.36079934,9.510268,2.365386,0.0,-6.9012341,109.4055195
1779785234925,1.1730001,9.25605,2.4070501,0.0576125,0.0353375,-0.0341,-1.2454977,0.3217411,-0.48275757,0.36079934,9.510268,2.365386,0.0,-6.9012341,109.4055195
1779785234925,-1.00995,9.98595,2.0740502,0.0576125,0.0353375,-0.0341,-1.2454977,0.3217411,-0.48275757,0.36079934,9.510268,2.365386,0.0,-6.9012341,109.4055195
1779785234925,-0.20505,9.43305,2.3419502,0.0576125,0.0353375,-0.0341,-1.2454977,0.3217411,-0.48275757,0.36079934,9.510268,2.365386,0.0,-6.9012341,109.4055195
1779785234925,0.64695,9.225,2.97195,0.0576125,0.0353375,-0.0341,-1.2454977,0.3217411,-0.48275757,0.36079934,9.510268,2.365386,0.0,-6.9012341,109.4055195
1779785234925,0.18405001,9.934051,2.325,0.0576125,0.0353375,-0.0341,-1.2454977,0.3217411,-0.48275757,0.36079934,9.510268,2.365386,0.0,-6.9012341,109.4055195
1779785234929,0.85995007,9.35595,1.6189501,0.0576125,0.0353375,-0.0341,-0.17674933,0.42378235,-0.04038596,0.37606737,9.509923,2.3643916,0.0,-6.9012341,109.4055195
1779785234934,-1.077,10.483951,3.075,-0.070125,-0.017875,0.0979,0.4838827,-0.15397263,-0.74544144,0.3718338,9.508005,2.3727567,0.0,-6.9012341,109.4055195
1779785234945,0.97005004,9.229051,2.196,-0.0924,-0.041249998,0.0105875,-1.4488338,0.9759455,0.7022433,0.37990877,9.509055,2.3672633,0.0,-6.9012341,109.4055195
1779785234954,0.82905006,9.30795,2.8950002,-0.0658625,-0.0050875,0.047849998,0.5901413,-0.2800045,-0.17126322,0.37990877,9.509055,2.3672633,0.0,-6.9012341,109.4055195
1779785234964,-0.75600004,10.06995,1.542,0.0757625,0.0427625,0.0191125,0.43861318,-0.19675064,0.51201487,0.37861192,9.509182,2.3669584,0.0,-6.9012341,109.4055195
1779785234981,-0.25305,9.379951,2.565,-0.14135,-8.25E-4,0.0446875,-1.134612,0.5607681,-0.8249583,0.37861192,9.509182,2.3669584,0.0,-6.9012341,109.4055195
1779785234985,0.66795003,9.00195,3.58995,0.0012375,0.031075,0.0276375,0.28591266,-0.5008373,1.1979952,0.38203737,9.502788,2.391955,0.0,-6.9012341,109.4055195
1779785234995,0.079050004,10.165951,1.48905,-0.0988625,-0.033825,0.0042625,-0.30227923,0.66184616,-0.89778197,0.38132924,9.504105,2.386832,0.0,-6.9012341,109.4055195
1779785235005,0.87195003,8.913,2.60805,0.076725,0.02585,0.0202125,-0.30227923,0.66184616,-0.89778197,0.38132924,9.504105,2.386832,0.0,-6.9012341,109.4055195
1779785235015,-0.88305,10.635,2.6800501,-0.04235,0.0705375,0.0169125,0.4838465,-0.59058285,0.22023082,0.3803194,9.503453,2.389591,0.0,-6.9012341,109.4055195
1779785235031,0.49605003,9.342,2.35605,0.0416625,-0.041249998,0.064899996,0.105642945,-0.1612606,-0.032672405,0.3904071,9.503261,2.3887224,0.0,-6.9012341,109.4055195
1779785235035,0.79695004,9.214951,3.1230001,-0.04235,-0.0210375,0.0413875,0.105642945,-0.1612606,-0.032672405,0.39773998,9.498542,2.4062212,0.0,-6.9012341,109.4055195
1779785235045,-0.483,10.09605,1.3219501,0.1247125,0.073699996,-0.0298375,0.39921007,-0.28359127,0.716779,0.3885759,9.504016,2.3860219,0.0,-6.9012341,109.4055195
1779785235061,-0.41805002,9.604951,1.87995,-0.2233,-0.0540375,0.064899996,-0.87157595,0.59203434,-1.0640718,0.37751618,9.504207,2.387035,0.0,-6.9012341,109.4055195
1779785235065,0.60300004,8.464951,4.54995,0.1469875,-0.0050875,0.0361625,0.21927062,-1.0331402,2.1396763,0.38372943,9.498091,2.4102738,0.0,-6.9012341,109.4055195
1779785235075,0.29700002,10.22805,1.01505,-0.089237496,0.0672375,0.023375,0.21927062,-1.0331402,2.1396763,0.38537887,9.5013275,2.3972178,0.0,-6.9012341,109.4055195
1779785235085,0.73800004,9.354,2.9929502,0.1087625,0.0449625,0.0776875,0.33994567,-0.14359093,0.5830319,0.39805436,9.497591,2.4099183,0.0,-6.9012341,109.4055195
1779785235096,0.22695,10.03905,1.932,-0.086075,0.081125,-0.0042625,0.33994567,-0.14359093,0.5830319,0.3949478,9.498719,2.4059875,0.0,-6.9012341,109.4055195
1779785235106,-0.873,10.312051,2.60805,-0.0924,0.0045375,0.047849998,-1.2680547,0.81271267,0.20453525,0.39505467,9.499338,2.4035149,0.0,-6.9012341,109.4055195
1779785235116,2.0329502,8.70195,2.84295,-0.115775,0.0694375,0.01265,-1.2680547,0.81271267,0.20453525,0.41264856,9.495153,2.4170558,0.0,-6.9012341,109.4055195
1779785235128,-0.08805001,10.021951,1.6980001,0.194975,0.0631125,-0.0213125,1.6203016,-0.79320335,0.42589426,0.4059511,9.500961,2.3952754,0.0,-6.9012341,109.4055195
1779785235133,-1.24695,10.276051,1.29495,-0.2255,-0.0231,0.0658625,-0.49400112,0.5209894,-0.6972753,0.39643487,9.501725,2.3938322,0.0,-6.9012341,109.4055195
1779785235146,1.10895,8.401051,4.545,0.1012,-0.0284625,-0.008525,0.6957649,-1.0907621,2.1149404,0.41318515,9.491813,2.4300597,0.0,-6.9012341,109.4055195
1779785235154,0.48405004,10.009951,1.0819501,-0.018975,0.015125,0.056375,0.6957649,-1.0907621,2.1149404,0.41594929,9.4977255,2.4063644,0.0,-6.9012341,109.4055195
1779785235164,0.177,9.802051,2.3800502,0.0044,-0.0677875,0.0658625,0.06810075,0.51222515,-1.3244144,0.4139799,9.497153,2.4089592,0.0,-6.9012341,109.4055195
1779785235178,0.59400004,9.735001,2.7919502,-0.0647625,0.0193875,-0.1043625,-0.23697989,0.3048973,-0.028908968,0.41740233,9.495723,2.4140053,0.0,-6.9012341,109.4055195
1779785235184,-0.40095,9.976951,2.3370001,0.045925,-0.1232,0.1010625,0.17659771,0.23927784,0.37794495,0.41181767,9.496859,2.4104912,0.0,-6.9012341,109.4055195
1779785235194,1.284,9.483001,2.8330503,-0.0924,0.02255,-0.0457875,-0.8127677,0.48009205,-0.0734911,0.4278883,9.493753,2.4199114,0.0,-6.9012341,109.4055195
1779785235204,0.99105006,9.15795,2.088,0.175725,0.033275,-0.058575,0.85611176,-0.010752678,0.41313887,0.43667212,9.494537,2.4152615,0.0,-6.9012341,109.4055195
1779785235214,-1.56105,10.462951,1.0320001,-0.1871375,-0.0561,0.1010625,0.5543779,-0.33658695,-0.32726145,0.42128605,9.498332,2.403039,0.0,-6.9012341,109.4055195
1779785235224,0.66105,7.9819503,5.00505,0.0991375,0.0864875,0.037125,-1.982336,0.9646187,-1.3710389,0.42128605,9.498332,2.403039,0.0,-6.9012341,109.4055195
1779785235234,1.1520001,9.831,1.5799501,-0.0605,0.0757625,0.0116875,0.23112452,-1.5057988,2.5620613,0.44503474,9.49253,2.4216158,0.0,-6.9012341,109.4055195
1779785235244,-0.13305001,9.95505,2.40405,0.097075,-0.07315,0.1670625,0.7069653,0.33847046,-0.84166574,0.4389121,9.49284,2.4215136,0.0,-6.9012341,109.4055195
1779785235254,0.14400001,9.924001,2.5480502,-0.122237496,0.1269125,-0.095837496,-0.5719621,0.46221066,-0.017463446,0.43510714,9.49272,2.4226713,0.0,-6.9012341,109.4055195
1779785235264,0.11505,9.56505,2.22705,0.1640375,-0.0380875,0.022275,-0.29110712,0.4312811,0.12537885,0.43039414,9.494944,2.414795,0.0,-6.9012341,109.4055195
1779785235276,0.52905005,9.792001,2.05005,-0.20625,-0.120037496,0.11165,-0.31534415,0.07010651,-0.18774486,0.43359813,9.495959,2.4102182,0.0,-6.9012341,109.4055195
1779785235285,0.41205,9.165,2.62695,0.210925,0.0875875,-0.11715,0.09545192,0.2960415,-0.36016822,0.43298057,9.49536,2.4126918,0.0,-6.9012341,109.4055195
1779785235295,-0.81105006,9.804001,2.4090002,-0.20735,-0.0253,0.0169125,-0.020930558,-0.3303604,0.2142582,0.41938174,9.495452,2.4147341,0.0,-6.9012341,109.4055195
1779785235305,0.20295002,9.330001,3.28605,0.1874125,-0.0614625,0.106425,-1.2304318,0.30854893,-0.005733967,0.41855106,9.49108,2.4319935,0.0,-6.9012341,109.4055195
1779785235315,1.197,9.56505,1.8649501,-0.14245,0.1109625,-0.0352,-0.21560104,-0.1610794,0.8540566,0.44714406,9.494285,2.4143395,0.0,-6.9012341,109.4055195
1779785235328,0.46005002,9.63195,1.60695,0.1364,-0.0028875,0.1010625,0.749856,0.070765495,-0.5493895,0.44714406,9.494285,2.4143395,0.0,-6.9012341,109.4055195
1779785235338,-1.21095,10.54395,2.9550002,-0.1051875,0.0056375,0.0988625,0.012512863,0.13193607,-0.78467226,0.44202787,9.498218,2.3997657,0.0,-6.9012341,109.4055195
1779785235348,1.233,8.952001,2.7799501,0.0683375,0.0438625,-0.0,-1.652978,1.0457325,0.55523443,0.45749712,9.497462,2.3998547,0.0,-6.9012341,109.4055195
1779785235358,0.9889501,9.427951,2.73705,-0.0488125,-0.00715,0.0765875,0.7755029,-0.54546165,0.38009548,0.45749712,9.497462,2.3998547,0.0,-6.9012341,109.4055195
1779785235368,-0.9979501,10.25205,1.092,0.02035,0.0672375,0.0339625,0.51482624,-0.065439224,0.32434893,0.46091905,9.498089,2.3967156,0.0,-6.9012341,109.4055195
1779785235378,-0.13800001,9.033,3.3330002,-0.0881375,0.013062499,0.0595375,-1.4588691,0.75396156,-1.3047156,0.454492,9.4924135,2.420314,0.0,-6.9012341,109.4055195
1779785235388,1.296,8.917951,2.217,0.0906125,-0.048675,0.0584375,-0.592492,-0.45941353,0.9126861,0.46754825,9.493596,2.4131823,0.0,-6.9012341,109.4055195
1779785235398,-0.51195,10.113001,3.1729503,-0.0391875,-0.00935,-0.0372625,0.82845175,-0.57564545,-0.19618225,0.4568787,9.492088,2.421137,0.0,-6.9012341,109.4055195
1779785235409,0.94605005,9.604951,1.5469501,0.0331375,0.0279125,-0.042625,-0.9688287,0.62091255,0.7518132,0.47887176,9.4990015,2.3895745,0.0,-6.9012341,109.4055195
1779785235418,-0.41295,9.96195,2.83995,-0.0573375,-0.0763125,0.1309,0.4671783,0.1059494,-0.8426244,0.47321615,9.496653,2.4000077,0.0,-6.9012341,109.4055195
1779785235429,0.27795002,9.844951,1.7500501,0.031075,0.0768625,0.0202125,-0.88616616,0.4652977,0.43994236,0.47321615,9.496653,2.4000077,0.0,-6.9012341,109.4055195
1779785235439,1.3410001,8.892,2.63895,0.012925,0.102437496,-0.0053625,-0.19265127,0.34353924,-0.6315658,0.4863572,9.497632,2.3934996,0.0,-6.9012341,109.4055195
1779785235449,-1.0510501,10.39095,1.6210501,-0.01045,-0.0380875,0.12979999,0.85464287,-0.6056318,0.2454505,0.47485098,9.501844,2.3790421,0.0,-6.9012341,109.4055195
1779785235459,0.11505,8.712001,3.801,-0.0221375,0.0523875,0.0276375,-1.5259011,0.8891058,-0.757992,0.4735969,9.493786,2.4112523,0.0,-6.9012341,109.4055195
1779785235469,0.50505,9.91905,2.3440502,0.0820875,0.0375375,0.037125,0.025395274,0.4223776,-0.05460143,0.47965473,9.496673,2.3986516,0.0,-6.9012341,109.4055195
1779785235479,0.89595,9.51,1.9900501,-0.0710875,-0.050875,0.0361625,0.025395274,0.4223776,-0.05460143,0.47965473,9.496673,2.3986516,0.0,-6.9012341,109.4055195
1779785235489,0.34500003,9.48795,1.4680501,0.028875,0.02365,0.022275,0.39862308,0.012673378,-0.40240693,0.49562943,9.501922,2.374505,0.0,-6.9012341,109.4055195
1779785235499,-1.45095,10.41705,3.3240001,-0.0807125,0.0875875,0.0754875,-0.1506294,-0.013971329,-0.9064549,0.48788288,9.498992,2.3877842,0.0,-6.9012341,109.4055195
1779785235509,1.317,8.985001,2.6509502,0.0587125,0.0694375,0.0903375,-1.9388329,0.9180584,0.9362159,0.51117945,9.497571,2.3885658,0.0,-6.9012341,109.4055195
1779785235519,0.522,9.462001,3.6709502,-0.0562375,-0.014575,0.1287,0.8058206,-0.5125704,0.2623844,0.5146747,9.491414,2.41217,0.0,-6.9012341,109.4055195
1779785235528,-0.08505,10.306951,1.08,0.1788875,0.066275,0.0202125,0.0073252916,-0.029413223,1.2587802,0.51176214,9.498468,2.3848715,0.0,-6.9012341,109.4055195
1779785235537,0.49605003,9.42105,1.52505,-0.2127125,-0.041249998,0.086075,-0.5968121,0.80848217,-1.3048714,0.51725316,9.499176,2.3808618,0.0,-6.9012341,109.4055195
1779785235547,-0.19800001,9.342,3.8749502,0.126775,-0.013612499,0.0573375,-0.02120313,-0.07812595,-0.8558117,0.5085088,9.493889,2.4037278,0.0,-6.9012341,109.4055195
1779785235557,0.69405,9.838051,1.0339501,-0.0807125,0.032175,0.0658625,-0.7065088,-0.15188885,1.4712224,0.51957715,9.5021,2.368661,0.0,-6.9012341,109.4055195
1779785235567,1.1230501,8.70195,3.4459503,0.028875,-8.25E-4,0.0265375,0.17447287,0.33595085,-1.3347108,0.5320877,9.496026,2.390137,0.0,-6.9012341,109.4055195
1779785235580,-0.74595004,10.884001,2.301,-0.0391875,-0.017875,0.007425,-1.2720032,1.3860235,-0.0827117,0.5260532,9.497977,2.3837118,0.0,-6.9012341,109.4055195
1779785235587,1.0009501,9.352051,2.3370001,-9.625E-4,-0.1285625,0.1329625,-1.2720032,1.3860235,-0.0827117,0.5452057,9.496476,2.3853889,0.0,-6.9012341,109.4055195
1779785235597,1.36695,9.559951,3.0030003,-0.013612499,0.0768625,-0.0787875,0.4557444,-0.14442539,-0.04838872,0.5589075,9.493446,2.394259,0.0,-6.9012341,109.4055195
1779785235607,0.79695004,9.948001,0.79995006,0.1577125,-0.0125124995,-0.011825,0.8080425,0.06650448,0.6087413,0.56758034,9.501623,2.359535,0.0,-6.9012341,109.4055195
1779785235617,-0.684,10.13895,1.2229501,-0.2179375,-0.1232,0.0979,0.2293697,0.44637775,-1.5595849,0.55037063,9.505911,2.346303,0.0,-6.9012341,109.4055195
1779785235628,0.40500003,7.9150505,5.7049503,0.1874125,-0.1263625,0.0435875,-1.2343707,0.6330395,-1.1233529,0.54986054,9.477433,2.4589229,0.0,-6.9012341,109.4055195
1779785235638,0.61800003,10.36005,0.555,0.0023375,-0.0210375,0.0020625,-0.1448605,-1.5623827,3.2460275,0.5545959,9.4856205,2.4260716,0.0,-6.9012341,109.4055195
1779785235648,0.40905002,9.29205,3.5850003,-0.0391875,-0.1678875,0.1425875,0.06340414,0.8744297,-1.8710716,0.55382377,9.477368,2.458285,0.0,-6.9012341,109.4055195
1779785235661,0.55995005,10.07205,1.6789501,0.045925,0.049225,-0.1351625,-0.14477375,-0.185318,1.1267152,0.55352026,9.482075,2.4401386,0.0,-6.9012341,109.4055195
1779785235668,-0.50205004,10.357051,1.6279501,-0.036025,-0.1285625,0.071225,0.0064297915,0.58997536,-0.7611885,0.5475495,9.484308,2.432792,0.0,-6.9012341,109.4055195
1779785235679,1.3050001,8.97105,2.7280502,-0.087037496,-0.122099996,0.0254375,-1.0495995,0.87274265,-0.8048419,0.5617305,9.481309,2.4412389,0.0,-6.9012341,109.4055195
1779785235688,0.37395,9.507001,2.98095,0.1247125,-0.00935,-0.08415,0.74326956,-0.5102587,0.28681135,0.5570197,9.479009,2.45123,0.0,-6.9012341,109.4055195
1779785235698,-0.40605003,10.15095,1.056,-0.099825,-0.10835,-0.0033,-0.1830697,0.027992249,0.52972007,0.54548496,9.485521,2.4285243,0.0,-6.9012341,109.4055195
1779785235710,0.55605,8.773951,4.605,0.0385,-0.1093125,0.0361625,-0.951535,0.6654291,-1.3725243,0.548246,9.469923,2.4880478,0.0,-6.9012341,109.4055195
1779785235719,0.75195,9.77805,1.07505,0.052249998,-0.031625,-0.0213125,0.19637108,0.29608917,-1.3650607,0.55557895,9.481961,2.4401107,0.0,-6.9012341,109.4055195
1779785235731,0.37605003,10.068001,1.9990501,-0.0466125,-0.082775,-0.009625,0.19637108,0.29608917,-1.3650607,0.55546737,9.482753,2.4370549,0.0,-6.9012341,109.4055195
1779785235752,1.3990501,8.51595,2.6800501,-0.0466125,-0.066825,-0.0650375,-0.17941734,0.585248,-0.43800473,0.55663687,9.481629,2.4411564,0.0,-6.9012341,109.4055195
1779785235752,-2.025,11.193001,3.31695,0.0609125,0.05775,-0.08195,-2.581637,1.7113714,0.8757937,0.55663687,9.481629,2.4411564,0.0,-6.9012341,109.4055195
1779785235762,3.0630002,8.655001,2.5429502,-0.084975,0.064075,-0.1309,-2.581637,1.7113714,0.8757937,0.60058653,9.47649,2.4506788,0.0,-6.9012341,109.4055195
1779785235771,1.1230501,9.237,3.039,0.1810875,-0.07535,0.0180125,2.4624138,-0.82148933,0.09227133,0.6225382,9.47151,2.4644156,0.0,-6.9012341,109.4055195
1779785235785,-1.6470001,11.29605,-0.90000004,-0.24035,-0.1742125,0.0435875,-2.2557163,1.8193932,-3.3480222,0.6087162,9.476657,2.4480221,0.0,-6.9012341,109.4055195
1779785235792,0.735,7.7760005,5.29005,0.1662375,0.017324999,0.0105875,0.119485736,-1.686254,2.7885945,0.6155143,9.462255,2.5014555,0.0,-6.9012341,109.4055195
1779785235802,1.9879501,9.162001,1.3960501,-8.25E-4,-0.0433125,0.0424875,0.119485736,-1.686254,2.7885945,0.6431183,9.467079,2.4761276,0.0,-6.9012341,109.4055195
1779785235815,-1.3480501,10.329,3.2899501,-0.033825,-0.113575,0.1181125,1.3448317,-0.3050785,-1.0800775,0.62564653,9.465333,2.4872558,0.0,-6.9012341,109.4055195
1779785235822,1.4680501,9.535951,2.6460001,0.0490875,0.097075,-0.100099996,-1.9736967,0.8636675,0.8026943,0.6466524,9.464516,2.484992,0.0,-6.9012341,109.4055195
1779785235833,1.1209501,9.699,1.7740501,0.0119624995,-0.0636625,0.0191125,0.8213977,0.071434975,0.16100812,0.66455895,9.467804,2.4676843,0.0,-6.9012341,109.4055195
1779785235846,-0.47295,10.321951,2.256,-0.1126125,-0.165825,0.124437496,-1.127826,0.8527632,-0.20896435,0.65487593,9.469188,2.4649644,0.0,-6.9012341,109.4055195
1779785235852,2.1070502,8.53005,3.01005,0.0735625,0.099275,-0.1139875,-1.127826,0.8527632,-0.20896435,0.67168653,9.465577,2.4742846,0.0,-6.9012341,109.4055195
1779785235863,-0.028050002,10.23495,1.7380501,-0.1115125,-0.032725,0.0319,1.4353637,-0.93552685,0.5357654,0.66657835,9.468763,2.4634507,0.0,-6.9012341,109.4055195
1779785235872,-0.13305001,8.81295,4.8349504,0.0598125,-0.0785125,0.087175,-0.69462836,0.7661867,-0.72540057,0.66657835,9.468763,2.4634507,0.0,-6.9012341,109.4055195
1779785235883,1.33605,9.984,0.97200006,0.0268125,0.0204875,0.0276375,-0.78649414,-0.643672,2.3218453,0.66721934,9.465306,2.476527,0.0,-6.9012341,109.4055195
1779785235892,1.45395,9.47595,2.301,-0.036025,0.0099,-0.0224125,0.6688307,0.5186939,-1.5045269,0.6927985,9.4629,2.478696,0.0,-6.9012341,109.4055195
1779785235903,0.38295,9.94305,1.815,0.0077,-0.097625,-0.024475,0.76115155,0.013050079,-0.17769599,0.6869206,9.467971,2.4609063,0.0,-6.9012341,109.4055195
1779785235919,-0.51195,10.065001,3.0169501,-0.0935,-0.14025,0.040425,-0.30397058,0.47507954,-0.6459062,0.6758151,9.465781,2.4723809,0.0,-6.9012341,109.4055195
1779785235929,2.2699502,9.14295,3.1060503,0.098037496,0.0088,-0.0947375,1.5522546,-0.31667137,0.62192917,0.7176956,9.459621,2.484121,0.0,-6.9012341,109.4055195
1779785235933,1.8319501,9.59595,1.8700501,0.032175,-0.041249998,-0.0617375,1.5522546,-0.31667137,0.62192917,0.74328405,9.461476,2.469493,0.0,-6.9012341,109.4055195
1779785235953,-1.3480501,10.73805,1.14405,-0.0317625,-0.10725,0.045649998,1.088666,0.1344738,-0.59944284,0.7350225,9.460762,2.4746945,0.0,-6.9012341,109.4055195
1779785235954,1.56105,8.500951,3.2710502,0.0906125,-0.0933625,-0.0468875,0.8260276,-0.9598112,0.7963557,0.7350225,9.460762,2.4746945,0.0,-6.9012341,109.4055195
1779785235963,0.83100003,9.47805,2.49795,0.100237496,-0.0358875,0.0094875,0.09573907,0.015732765,0.029280901,0.73526096,9.462317,2.4686692,0.0,-6.9012341,109.4055195
1779785235985,0.08400001,9.8539505,2.56905,-0.1307625,-0.1104125,-0.0,0.09573907,0.015732765,0.029280901,0.7253049,9.460906,2.4770122,0.0,-6.9012341,109.4055195
1779785235985,1.05795,8.83905,3.0919502,0.029975,0.0023375,-0.0075625,0.33264512,-0.62185574,0.614938,0.7253049,9.460906,2.4770122,0.0,-6.9012341,109.4055195
1779785235994,-0.50205004,10.88895,2.14995,-0.1051875,-0.1348875,0.0776875,0.33264512,-0.62185574,0.614938,0.72248834,9.461216,2.4766479,0.0,-6.9012341,109.4055195
1779785236003,1.69305,8.67405,3.1750503,0.0512875,0.0279125,-0.1139875,-1.2245383,1.4277344,-0.32669783,0.73265636,9.457353,2.4883885,0.0,-6.9012341,109.4055195
1779785236019,0.67800003,9.807,1.8010501,0.0598125,-0.031625,0.01485,0.96039367,-0.7833023,0.6866617,0.73341656,9.46268,2.467828,0.0,-6.9012341,109.4055195
1779785236024,-0.62895006,10.189951,0.90000004,-0.1029875,-0.01045,0.024475,-1.3385693,0.72021484,-1.547641,0.7096192,9.469736,2.4476411,0.0,-6.9012341,109.4055195
1779785236034,0.53595,8.446051,4.97895,0.0385,0.05775,0.0094875,-1.3385693,0.72021484,-1.547641,0.704915,9.440951,2.557717,0.0,-6.9012341,109.4055195
1779785236049,1.7310001,9.33495,1.3429501,0.0501875,-0.033825,-0.009625,-0.16896498,-0.9949007,2.421233,0.7246175,9.447699,2.5271173,0.0,-6.9012341,109.4055195
1779785236055,-0.51900005,10.666051,2.6560502,-0.0710875,-0.1029875,0.037125,1.0063826,-0.112748146,-1.1841671,0.71154076,9.447242,2.5325375,0.0,-6.9012341,109.4055195
1779785236065,2.388,9.30405,1.6669501,0.081125,0.016224999,-0.20019999,-1.2305408,1.2188091,0.123512745,0.7588422,9.451484,2.5027943,0.0,-6.9012341,109.4055195
1779785236075,-0.28695002,10.54695,2.0380502,-0.0573375,-0.18493749,0.01485,1.6291578,-0.14743328,-0.83584416,0.74803615,9.452787,2.5011306,0.0,-6.9012341,109.4055195
1779785236085,0.84495,9.574051,2.5099502,0.0034375,-0.129525,-0.08305,-1.0349861,1.094163,-0.4630804,0.74404234,9.453621,2.4991748,0.0,-6.9012341,109.4055195
1779785236099,1.72395,9.186001,2.5120502,0.0257125,-0.016775,-0.1777875,0.10090768,0.12042999,0.010775328,0.7615656,9.451551,2.5017192,0.0,-6.9012341,109.4055195
1779785236105,-0.61905,10.111051,1.8649501,-0.0785125,-0.1593625,-0.027775,0.9623844,-0.2655506,0.010330915,0.7393059,9.456168,2.4909272,0.0,-6.9012341,109.4055195
1779785236115,-0.06105,9.1380005,4.2990003,0.0342375,-0.080575,-0.0394625,-1.358356,0.65488243,-0.62597716,0.7204925,9.448462,2.525439,0.0,-6.9012341,109.4055195
1779785236130,1.9879501,9.658051,0.771,0.032175,-0.0561,-0.060775,-0.7815425,-0.31046104,1.7735612,0.7464541,9.459287,2.4769087,0.0,-6.9012341,109.4055195
1779785236133,0.65400004,9.711,2.835,-0.1265,-0.1508375,-0.1469875,1.241496,0.19876385,-1.7059087,0.74461997,9.458308,2.4811954,0.0,-6.9012341,109.4055195
1779785236143,0.109950006,9.60795,2.565,0.0661375,-0.1232,-0.1841125,-0.09061992,0.25269222,0.3538046,0.7240736,9.460716,2.4780993,0.0,-6.9012341,109.4055195
1779785236153,-0.35805002,10.174951,2.088,-0.0466125,-0.195525,0.005225,-0.6141236,0.14723396,0.08690071,0.7055299,9.463554,2.472602,0.0,-6.9012341,109.4055195
1779785236163,1.3909501,8.97795,4.4089503,-0.04235,-0.0306625,-0.206525,-1.0635799,0.7113962,-0.38460183,0.71139944,9.453358,2.5096443,0.0,-6.9012341,109.4055195
1779785236172,1.899,10.048051,-0.28005,0.1694,-0.1934625,-0.0671,0.67955065,-0.4754076,1.899306,0.72362715,9.465686,2.45918,0.0,-6.9012341,109.4055195
1779785236189,-1.7329501,10.41705,1.8919501,0.15455,-0.0796125,-0.125675,1.1753728,0.58236504,-2.7392302,0.6865382,9.468729,2.4580946,0.0,-6.9012341,109.4055195
1779785236193,0.795,8.314051,4.44705,0.15455,-0.0796125,-0.125675,-2.4194884,0.94832134,-0.56614447,0.6862404,9.459913,2.4918928,0.0,-6.9012341,109.4055195
1779785236203,2.5410001,10.192051,-0.10005,-0.0807125,-0.23925,-0.1203125,0.10875964,-1.1458626,1.9551573,0.6984378,9.468131,2.4570448,0.0,-6.9012341,109.4055195
1779785236222,-0.04695,9.16005,3.8770502,-0.034925,-0.262625,-0.08305,1.8425623,0.72391987,-2.5570948,0.6650864,9.459992,2.4973142,0.0,-6.9012341,109.4055195
1779785236223,-0.16005,10.52505,3.015,0.08855,-0.034925,-0.35021248,-0.7120364,-0.29994202,1.379736,0.64646983,9.462299,2.4934604,0.0,-6.9012341,109.4055195
1779785236233,2.388,9.876,0.70905006,-0.049775,-0.3477375,-0.0884125,-0.80651987,1.0627508,0.5215397,0.6703428,9.468562,2.4631975,0.0,-6.9012341,109.4055195
1779785236245,1.2049501,9.46395,3.4480503,0.029975,-0.3733125,-0.1043625,1.7176572,0.40743828,-1.7541474,0.65976447,9.464696,2.480856,0.0,-6.9012341,109.4055195
1779785236253,0.393,10.67805,-0.79005,0.0385,-0.0785125,-0.47685,0.5451856,-7.457733E-4,0.9671943,0.6392877,9.476177,2.4420857,0.0,-6.9012341,109.4055195
1779785236267,-0.47595003,9.29205,5.1940503,-0.1753125,-0.4723125,-0.1714625,-0.2462877,1.2018728,-3.2321358,0.6168982,9.467888,2.4797015,0.0,-6.9012341,109.4055195
1779785236273,2.457,8.877001,-0.010950001,0.2300375,-0.5286875,-0.15125,-1.0928482,-0.17583752,2.7143488,0.62038094,9.477803,2.4406495,0.0,-6.9012341,109.4055195
1779785236283,-0.29805002,9.934051,2.84505,-0.2019875,-0.197725,-0.5949625,1.8366191,-0.6008024,-2.4515996,0.58147115,9.476897,2.45371,0.0,-6.9012341,109.4055195
1779785236293,0.32295,9.96195,2.7949502,0.1056,-0.5850625,-0.2938375,-0.87952113,0.45715332,0.39134002,0.5652018,9.478679,2.4506257,0.0,-6.9012341,109.4055195
1779785236303,2.13105,10.765051,0.81900007,-0.1923625,-0.7137625,-0.14795,-0.24225181,0.4832716,0.3443246,0.5525854,9.4834,2.4351966,0.0,-6.9012341,109.4055195
1779785236317,2.29905,8.875051,3.2620502,0.0939125,-0.24447499,-0.600325,1.5784647,1.2816505,-1.6161966,0.5589987,9.477343,2.4572132,0.0,-6.9012341,109.4055195
1779785236341,-0.354,11.74905,1.0849501,-0.0039875,-0.4786375,-0.5215375,1.7400514,-0.60229206,0.804837,0.51949716,9.482721,2.4451008,0.0,-6.9012341,109.4055195
1779785236341,1.09395,9.01395,1.71405,-0.0402875,-0.47753748,-0.8237625,0.5744529,-0.46877098,-0.7310507,0.51949716,9.482721,2.4451008,0.0,-6.9012341,109.4055195
1779785236347,1.9159501,8.652,3.8100002,-0.0402875,-0.47753748,-0.8237625,0.5744529,-0.46877098,-0.7310507,0.50087863,9.474807,2.4794269,0.0,-6.9012341,109.4055195
1779785236355,1.389,8.6640005,2.12595,0.1896125,-0.66385,-0.6950625,1.4150715,-0.82280636,1.3305733,0.49181044,9.477367,2.4714398,0.0,-6.9012341,109.4055195
1779785236366,-2.2720501,11.995951,2.52195,-0.163625,-0.9373375,-0.3746875,-2.7126458,2.5143929,0.05693221,0.4405957,9.481558,2.4650178,0.0,-6.9012341,109.4055195
1779785236375,6.7630506,7.79505,0.025950002,0.1247125,-0.703175,-0.48221248,-2.7126458,2.5143929,0.05693221,0.47942272,9.4877405,2.433789,0.0,-6.9012341,109.4055195
1779785236385,-2.1379502,11.94795,4.3369503,-0.1508375,-0.38279998,-0.991925,6.283628,-1.6926904,-2.407839,0.43417028,9.487555,2.4429865,0.0,-6.9012341,109.4055195
1779785236395,0.39705002,10.816951,-1.245,0.0257125,-1.21715,-0.2916375,-2.5721204,2.4603958,1.8939638,0.40502918,9.499949,2.3994372,0.0,-6.9012341,109.4055195
1779785236404,3.18495,6.9540005,4.59795,-0.426525,-0.9202875,-0.7332875,-0.007979155,1.3170013,-3.6444373,0.37615114,9.4910345,2.4390953,0.0,-6.9012341,109.4055195
1779785236422,-3.0979502,10.635,4.677,0.2492875,-0.571175,-0.9791375,2.808799,-2.537034,2.1588547,0.27908593,9.498311,2.4237523,0.0,-6.9012341,109.4055195
1779785236425,4.215,9.826051,-1.8100501,-0.1263625,-1.3343,-0.2981,-3.377036,1.1366892,2.2532477,0.31035805,9.505017,2.3934746,0.0,-6.9012341,109.4055195
1779785236435,0.61995006,9.265051,4.629,-0.0605,-0.95645,-1.0866625,3.904642,0.32103348,-4.2035246,0.24407181,9.497825,2.429432,0.0,-6.9012341,109.4055195
1779785236456,-0.14805001,11.392051,-0.67200005,0.19607499,-1.0703,-1.0451375,0.37587824,-0.23277378,2.1995683,0.14697075,9.508367,2.395783,0.0,-6.9012341,109.4055195
1779785236456,1.36695,8.71905,0.51495004,-0.245575,-0.9937125,-0.93334997,1.2199793,-0.7893162,-1.8808329,0.14697075,9.508367,2.395783,0.0,-6.9012341,109.4055195
1779785236465,-2.571,9.883051,6.83505,0.210925,-1.0192875,-1.1760375,1.2199793,-0.7893162,-1.8808329,0.06680104,9.504445,2.4148428,0.0,-6.9012341,109.4055195
1779785236475,4.03095,9.378,0.081,-0.0572,-1.1064625,-0.9834,-2.6378012,0.37860584,4.420207,0.093885764,9.514542,2.373829,0.0,-6.9012341,109.4055195
1779785236486,-0.29595003,9.700951,4.2120004,0.0023375,-1.258675,-0.729025,3.9370644,-0.13654137,-2.2928288,0.017144,9.508942,2.3979409,0.0,-6.9012341,109.4055195
1779785236496,-0.282,9.29205,1.9560001,0.0842875,-0.85965,-1.0866625,-0.31309402,0.19200897,1.8140595,-0.055854265,9.511156,2.3885517,0.0,-6.9012341,109.4055195
1779785236505,0.294,10.630051,-0.49005002,0.0416625,-1.0203875,-1.1473,-0.22614574,-0.21910572,-0.43255162,-0.113580495,9.51866,2.356403,0.0,-6.9012341,109.4055195
1779785236515,0.43605003,8.58495,3.8700001,-0.20735,-1.4779875,-0.713075,0.4075805,1.1113911,-2.8464532,-0.16860008,9.507201,2.3989785,0.0,-6.9012341,109.4055195
1779785236528,-0.20505,11.686951,1.71,0.25135,-0.9128625,-1.1749375,0.60465014,-0.92225075,1.4710217,-0.24565482,9.509771,2.3820794,0.0,-6.9012341,109.4055195
1779785236536,2.70105,7.8640504,-0.68700004,0.25135,-0.9128625,-1.1749375,0.040604815,2.1771793,-0.6720793,-0.24565482,9.509771,2.3820794,0.0,-6.9012341,109.4055195
1779785236547,-4.269,8.286,6.2080503,0.1172875,-1.3140875,-1.2590874,2.9935198,-1.644052,-3.0704565,-0.40590504,9.494178,2.4220314,0.0,-6.9012341,109.4055195
1779785236556,-2.60295,11.445001,0.031050002,0.28545,-1.5662625,-1.0260249,-3.863095,-1.2081776,3.7860188,-0.47883502,9.496258,2.4004602,0.0,-6.9012341,109.4055195
1779785236570,4.60605,11.371051,0.069000006,-0.114675,-1.3949375,-1.1526625,-2.124115,1.9487429,-2.3694103,-0.51872534,9.493729,2.4021692,0.0,-6.9012341,109.4055195
1779785236578,3.0180001,3.7900503,2.5740001,-0.0284625,-1.38325,-1.154725,5.1247754,1.8773222,-2.3331692,-0.59002095,9.483589,2.4256513,0.0,-6.9012341,109.4055195
1779785236587,-14.941951,12.39105,4.524,-0.041249998,-1.4683625,-1.06315,3.608021,-5.6935387,0.14834881,-0.702733,9.475998,2.42529,0.0,-6.9012341,109.4055195
1779785236606,3.01305,13.51395,-2.394,-0.0774125,-1.568325,-0.7205,-14.239218,2.9150524,2.09871,-0.76773196,9.4654665,2.4466188,0.0,-6.9012341,109.4055195
1779785236607,14.941951,4.209,-0.8880001,-0.3839,-1.684375,-0.9834,15.709682,-5.2564664,-3.3346188,-0.76773196,9.4654665,2.4466188,0.0,-6.9012341,109.4055195
1779785236626,-16.75905,7.9459505,9.24195,0.3609375,-0.6573875,-1.9199125,15.709682,-5.2564664,-3.3346188,-0.90958476,9.450063,2.457513,0.0,-6.9012341,109.4055195
1779785236626,-14.649001,15.055951,-0.052050002,-0.0881375,-1.617275,-0.35021248,-15.849465,-1.5041122,6.784437,-0.9604763,9.447648,2.447412,0.0,-6.9012341,109.4055195
1779785236636,21.028051,8.884951,-4.25805,-0.2498375,-1.634325,-0.648175,-13.688525,5.608303,-2.4994621,-0.9585278,9.44138,2.4722354,0.0,-6.9012341,109.4055195
1779785236648,5.7460504,1.1509501,5.5630503,-0.2850375,-0.59565,-1.8283374,21.98658,-0.5564289,-6.7302856,-1.0328274,9.417685,2.53197,0.0,-6.9012341,109.4055195
1779785236657,-36.56895,16.03095,8.2890005,0.35145,-1.15225,-1.023825,6.7788777,-8.266734,3.0310802,-1.1770198,9.40476,2.5170424,0.0,-6.9012341,109.4055195
1779785236668,6.1600504,14.400001,-2.4829502,-0.0614625,-1.6460125,-0.0394625,-35.39193,6.62619,5.7719584,-1.1268358,9.405693,2.5364456,0.0,-6.9012341,109.4055195
1779785236678,32.409,-1.1400001,-6.078,-0.2498375,-1.2214125,-0.7854,7.286886,4.9943075,-5.019396,-1.1375374,9.400445,2.5510857,0.0,-6.9012341,109.4055195
1779785236687,-29.716951,9.58905,13.503,-0.087037496,-0.6329125,-2.3860376,33.54654,-10.540445,-8.629086,-1.1375374,9.400445,2.5510857,0.0,-6.9012341,109.4055195
1779785236707,-27.25695,18.63495,3.1710002,0.22687499,-1.407725,0.4448125,-28.39469,0.21662903,10.937899,-1.3430215,9.372666,2.5533946,0.0,-6.9012341,109.4055195
1779785236731,-30.13305,26.38305,12.22395,0.3205125,-0.8767,-1.55375,-25.913929,9.262284,0.6176057,-1.5892031,9.333107,2.5569472,0.0,-6.9012341,109.4055195
1779785236733,10.38195,7.5979505,-8.569051,0.243925,-1.1757625,0.6821375,11.960517,-1.7394843,-11.116756,-1.5785664,9.337435,2.5477054,0.0,-6.9012341,109.4055195
1779785236738,42.28905,-2.7810001,-17.835001,-0.0614625,-2.1164,0.8927875,43.80153,-12.12735,-20.39011,-1.5124779,9.34635,2.5551095,0.0,-6.9012341,109.4055195
1779785236743,31.47495,-4.23,6.94005,-0.2935625,-0.3073125,0.43945,43.80153,-12.12735,-20.39011,-1.4711826,9.346312,2.5792367,0.0,-6.9012341,109.4055195
1779785236751,-14.44305,3.9600003,16.58805,-0.3147375,0.488675,-1.0366125,32.946133,-13.576311,4.360813,-1.5072035,9.337168,2.5915327,0.0,-6.9012341,109.4055195
1779785236757,-43.063953,18.153002,7.017,0.3227125,-0.1243,-2.168925,-12.935847,-5.3771677,13.996518,-1.6042129,9.323358,2.5830016,0.0,-6.9012341,109.4055195
1779785236762,-43.453953,30.54,2.80905,0.726,-0.031625,-1.0866625,-41.45974,8.829644,4.4339986,-1.6681042,9.319431,2.556565,0.0,-6.9012341,109.4055195
1779785236766,-11.248951,16.788,-11.625001,0.014025,-1.2342,0.82156247,-41.78585,21.22057,0.25248504,-1.6248705,9.323132,2.5708768,0.0,-6.9012341,109.4055195
1779785236770,38.37495,-4.749,-8.39595,-0.94159997,-1.521575,1.38765,-9.624081,7.4648685,-14.195878,-1.5397092,9.324507,2.617876,0.0,-6.9012341,109.4055195
1779785236774,37.74105,-12.454051,12.516001,-0.5350125,0.275825,0.3702875,39.91466,-14.073507,-11.013826,-1.5066028,9.321107,2.649062,0.0,-6.9012341,109.4055195
1779785236779,-1.41495,-2.9629502,18.633001,-0.3531,0.3961375,-0.4736875,39.247654,-21.775158,9.866939,-1.5207344,9.315108,2.662053,0.0,-6.9012341,109.4055195
1779785236790,-34.329002,16.84095,5.8000503,0.6642625,-0.5042125,-0.1703625,0.105784416,-12.278059,15.970948,-1.6520617,9.30732,2.6105368,0.0,-6.9012341,109.4055195
1779785236792,-43.53105,34.321953,-1.06305,0.6642625,-0.5042125,-0.1703625,-41.87899,25.014633,-3.6735868,-1.6520617,9.30732,2.6105368,0.0,-6.9012341,109.4055195
1779785236794,-24.048,22.18905,-20.247002,0.6642625,-0.5042125,-0.1703625,-41.87899,25.014633,-3.6735868,-1.6685989,9.315403,2.5708845,0.0,-6.9012341,109.4055195
1779785236801,28.884,-2.7109501,-4.6000504,-0.836275,-1.4683625,1.25565,-22.379402,12.873648,-22.817886,-1.604584,9.314744,2.613664,0.0,-6.9012341,109.4055195
1779785236803,36.969,-13.9129505,24.129002,-1.145925,-0.2019875,1.3770624,30.488585,-12.025694,-7.2137146,-1.5241431,9.309955,2.6780813,0.0,-6.9012341,109.4055195
1779785236808,4.88595,-5.25705,19.416,-0.4723125,0.2418625,-0.059675,38.493145,-23.222904,21.45092,-1.5093899,9.302156,2.7133045,0.0,-6.9012341,109.4055195
1779785236822,-22.093052,18.53895,0.63195,1.1198,0.2470875,-1.155825,6.39534,-14.559206,16.702696,-1.6083168,9.3162775,2.605895,0.0,-6.9012341,109.4055195
1779785236822,-35.66595,35.448,-5.9050503,1.1198,0.2470875,-1.155825,6.39534,-14.559206,16.702696,-1.6083168,9.3162775,2.605895,0.0,-6.9012341,109.4055195
1779785236825,-24.34395,24.76605,-18.051,0.5993625,-0.1551,-0.21615,-34.057632,26.131725,-8.510945,-1.6231009,9.322974,2.5725675,0.0,-6.9012341,109.4055195
1779785236828,20.149052,0.058950003,0.105000004,-0.967175,-1.258675,0.9769375,-22.72085,15.443076,-20.623568,-1.5748599,9.3220215,2.6057851,0.0,-6.9012341,109.4055195
1779785236834,32.509953,-12.37695,26.02605,-1.12035,-0.1348875,1.3344375,21.723911,-9.263071,-2.500785,-1.5027909,9.316404,2.6677065,0.0,-6.9012341,109.4055195
1779785236838,8.32005,-6.13605,17.68395,-0.3647875,0.12155,0.0424875,34.012745,-21.693356,23.358345,-1.4823964,9.309935,2.7014894,0.0,-6.9012341,109.4055195
1779785236844,-14.88405,17.241001,1.6330501,1.125025,0.1854875,-0.747175,9.802446,-15.445985,14.982461,-1.5154691,9.314615,2.6667743,0.0,-6.9012341,109.4055195
1779785236856,-32.94495,34.521,-8.578051,1.4922875,0.97075,-0.551375,-13.368582,7.926386,-1.0337242,-1.5723215,9.339381,2.5444355,0.0,-6.9012341,109.4055195
1779785236857,-20.88795,25.510952,-21.63105,1.2783375,0.4621375,-0.4609,-19.31563,16.17157,-24.175486,-1.5723215,9.339381,2.5444355,0.0,-6.9012341,109.4055195
1779785236860,19.480951,1.55595,-4.0129504,-0.75955,-1.0767624,1.02905,-19.31563,16.17157,-24.175486,-1.5202076,9.339763,2.5745301,0.0,-6.9012341,109.4055195
1779785236864,28.018951,-10.275001,21.895052,-1.131075,-0.2094125,1.150325,21.00116,-7.7838125,-6.5874805,-1.4557098,9.334772,2.6293228,0.0,-6.9012341,109.4055195
1779785236869,7.695,-8.292001,14.050951,-0.319,0.102437496,-0.069299996,29.47466,-19.609772,19.26573,-1.4400362,9.326152,2.6682577,0.0,-6.9012341,109.4055195
1779785236873,-14.592001,16.47705,5.0989504,0.88673747,0.26633748,-0.6045875,9.135036,-17.618153,11.382693,-1.470248,9.330799,2.63533,0.0,-6.9012341,109.4055195
1779785236880,-36.09405,33.56295,-12.573001,1.5455,0.7706875,-0.6865375,-13.121753,7.1462517,2.4636204,-1.5119802,9.344629,2.5616817,0.0,-6.9012341,109.4055195
1779785236889,-19.986,23.97105,-21.612001,0.8111125,-0.1700875,-0.141625,-34.58207,24.21832,-15.134683,-1.5119802,9.344629,2.5616817,0.0,-6.9012341,109.4055195
1779785236889,18.08505,1.02405,3.6540003,-1.147025,-0.40205,1.0407375,19.555416,-8.330581,1.1046298,-1.5284666,9.354813,2.5142946,0.0,-6.9012341,109.4055195
1779785236895,23.754002,-10.267051,21.277052,-1.147025,-0.40205,1.0407375,19.555416,-8.330581,1.1046298,-1.4086212,9.348608,2.6057103,0.0,-6.9012341,109.4055195
1779785236899,11.25195,-5.59005,10.614,0.0108624995,0.058849998,0.04675,25.162622,-19.615658,18.67134,-1.3855343,9.344506,2.6326637,0.0,-6.9012341,109.4055195
1779785236904,-13.063951,19.32195,4.5739503,0.963325,0.4354625,-0.44701248,12.637485,-14.934557,7.9813366,-1.4050635,9.350819,2.5996869,0.0,-6.9012341,109.4055195
1779785236909,-36.22095,29.050951,-14.08905,1.3432375,0.6430875,-0.713075,-11.658887,9.971132,1.9742634,-1.4470977,9.363017,2.5318344,0.0,-6.9012341,109.4055195
1779785236923,-15.784951,20.254051,-14.202001,0.4940375,-0.1604625,0.08085,-34.773853,19.687935,-16.620884,-1.3947335,9.371461,2.529985,0.0,-6.9012341,109.4055195
1779785236923,12.83205,1.91295,9.06,0.4940375,-0.1604625,0.08085,-34.773853,19.687935,-16.620884,-1.3947335,9.371461,2.529985,0.0,-6.9012341,109.4055195
1779785236930,15.799951,-8.715,15.826051,-0.934175,-0.46048748,0.8492,14.226784,-7.458511,6.5300155,-1.340835,9.365737,2.5798306,0.0,-6.9012341,109.4055195
1779785236931,14.449051,-1.3800001,7.39305,0.2322375,-0.07425,0.2957625,17.140785,-18.080738,13.24622,-1.340835,9.365737,2.5798306,0.0,-6.9012341,109.4055195
1779785236935,-10.65495,22.000051,0.63705003,1.2815,0.570625,-0.5258,-9.34116,12.622027,-1.9118711,-1.3137898,9.378024,2.548921,0.0,-6.9012341,109.4055195
1779785236940,-28.67205,26.445002,-17.79405,1.2815,0.570625,-0.5258,-9.34116,12.622027,-1.9118711,-1.346114,9.39087,2.4839323,0.0,-6.9012341,109.4055195
1779785236945,-4.36005,14.467051,-10.06095,0.066275,-0.246675,0.43835,-27.325937,17.05413,-20.277983,-1.3405577,9.39862,2.457493,0.0,-6.9012341,109.4055195
1779785236956,6.7249503,2.11905,12.007951,-0.689425,-0.00825,0.86625,-3.0194926,5.068431,-12.518443,-1.3405577,9.39862,2.457493,0.0,-6.9012341,109.4055195
1779785236956,5.2309504,-6.8899503,13.110001,0.21945,-0.066825,0.4915625,6.480747,-16.27461,10.553333,-1.2497966,9.384661,2.5566673,0.0,-6.9012341,109.4055195
1779785236961,10.9789505,4.2910504,9.56805,0.21945,-0.066825,0.4915625,6.480747,-16.27461,10.553333,-1.2123708,9.387361,2.5647593,0.0,-6.9012341,109.4055195
1779785236966,-14.793001,22.000051,-5.5410004,1.093125,0.6100875,-0.0776875,12.191321,-5.09631,7.003291,-1.213485,9.399435,2.5196133,0.0,-6.9012341,109.4055195
1779785236977,-15.64605,22.744051,-18.76905,1.1389124,0.523875,-0.08195,-13.579516,12.600616,-8.060614,-1.2294618,9.413423,2.458918,0.0,-6.9012341,109.4055195
1779785236978,7.7959504,11.365951,-8.154,-0.10615,-0.1508375,0.824725,-14.416589,13.330628,-21.227968,-1.1902475,9.423299,2.4403193,0.0,-6.9012341,109.4055195
1779785236985,2.8549502,2.799,7.314,-0.6851625,0.0598125,0.3436125,8.986198,1.9426517,-10.594319,-1.1274896,9.410827,2.5170407,0.0,-6.9012341,109.4055195
1779785236989,4.7130003,-3.5490003,10.606951,-0.15413749,0.1332375,0.4576,3.9824398,-6.611827,4.7969594,-1.0880202,9.39975,2.5751364,0.0,-6.9012341,109.4055195
1779785236992,2.766,9.150001,9.03405,0.6281,0.51425,0.053075,5.8010206,-12.94875,8.031815,-1.0703294,9.403255,2.5697417,0.0,-6.9012341,109.4055195
1779785237006,-22.737001,19.77,-8.68395,1.1005499,0.726,-0.076725,3.8363295,-0.2532549,6.4643083,-1.0703294,9.403255,2.5697417,0.0,-6.9012341,109.4055195
1779785237006,-7.182,19.375051,-14.2570505,-0.40315,0.095975,0.7789375,-6.121849,9.950373,-16.751423,-1.0601512,9.424679,2.494373,0.0,-6.9012341,109.4055195
1779785237008,10.308001,10.08405,-6.1860003,-0.40315,0.095975,0.7789375,-6.121849,9.950373,-16.751423,-1.0073746,9.429257,2.4989376,0.0,-6.9012341,109.4055195
1779785237013,4.1119504,-0.83100003,4.4380503,-0.525525,0.4217125,0.47245,11.315375,0.6547928,-8.684938,-0.9808968,9.423599,2.5306168,0.0,-6.9012341,109.4055195
1779785237018,9.68805,-1.9470001,10.753051,-0.1786125,0.246125,0.4266625,5.0928473,-10.2546,1.9074335,-0.9464263,9.42002,2.5569315,0.0,-6.9012341,109.4055195
1779785237023,-6.636,12.93,5.7240005,0.6590375,0.7302625,-0.15015,10.634477,-11.367021,8.196119,-0.9610081,9.424274,2.5357249,0.0,-6.9012341,109.4055195
1779785237027,-22.488,18.994051,-9.567,0.7898,0.69836247,0.2288,-5.674992,3.5057259,3.1882756,-0.96953505,9.435704,2.4895558,0.0,-6.9012341,109.4055195
1779785237037,-2.2069502,14.380951,-9.369,-0.1051875,0.2396625,0.888525,-21.518465,9.558347,-12.056557,-0.89048016,9.439686,2.5039475,0.0,-6.9012341,109.4055195
1779785237037,3.0889502,6.432,2.43495,-0.66385,0.2396625,0.6799375,3.9794302,-3.0076857,-0.06899738,-0.89048016,9.439686,2.5039475,0.0,-6.9012341,109.4055195
1779785237042,2.35395,-3.3460503,9.040951,-0.2913625,0.556875,0.7140375,3.9794302,-3.0076857,-0.06899738,-0.7634203,9.348197,2.8633535,0.0,-6.9012341,109.4055195
1779785237050,8.454,6.6259503,12.162001,0.2140875,0.51535,0.4670875,3.1173704,-12.694247,6.177597,-0.733739,9.3495245,2.8667777,0.0,-6.9012341,109.4055195
1779785237052,-13.114051,15.772951,-3.6709502,0.8845375,0.946275,0.1062875,9.187739,-2.7235742,9.295223,-0.7422164,9.361063,2.826665,0.0,-6.9012341,109.4055195
1779785237058,-9.91695,15.496951,-6.8299503,0.08745,0.458975,0.7544625,-12.371835,6.411888,-6.497615,-0.72812,9.36909,2.8036382,0.0,-6.9012341,109.4055195
1779785237063,2.5410001,10.851001,0.13905,-0.2168375,0.54835,0.7618875,-9.18883,6.127861,-9.633589,-0.6639591,9.377988,2.789782,0.0,-6.9012341,109.4055195
1779785237071,-4.3650002,6.5659504,1.9060501,-0.0688875,0.7601,0.6661875,3.2049592,1.4730129,-2.650732,-0.66302764,9.3761425,2.7962027,0.0,-6.9012341,109.4055195
1779785237073,5.74305,3.6780002,1.21395,-0.0881375,0.4120875,0.8672125,-3.7019725,-2.810192,-0.8901526,-0.6186689,9.379688,2.7944713,0.0,-6.9012341,109.4055195
1779785237079,0.43605003,11.835001,7.2640505,0.0204875,0.848375,0.3702875,6.361719,-5.701688,-1.5805212,-0.6014293,9.37896,2.8006742,0.0,-6.9012341,109.4055195
1779785237084,-16.84605,11.4210005,1.1179501,0.4334,1.1070125,0.5245625,1.0374793,2.4560413,4.463376,-0.60300875,9.384635,2.7812586,0.0,-6.9012341,109.4055195
1779785237088,1.9759501,11.365951,-5.355,0.1705,0.50888747,1.052425,-16.243042,2.0363655,-1.6633085,-0.5550921,9.398213,2.745145,0.0,-6.9012341,109.4055195
1779785237093,2.9290502,12.942,-6.6720004,-0.0264,0.6568375,0.6842,2.531042,1.9677372,-8.100145,-0.521353,9.405318,2.7273786,0.0,-6.9012341,109.4055195
1779785237104,-5.7970505,3.522,3.144,-0.395725,1.03675,0.7852625,3.4504032,3.5366821,-9.399379,-0.48192665,9.393205,2.7759414,0.0,-6.9012341,109.4055195
1779785237104,6.84,2.93805,15.5460005,0.553575,1.244375,0.478775,7.3219266,-6.4551544,12.77006,-0.48192665,9.393205,2.7759414,0.0,-6.9012341,109.4055195
1779785237108,-8.358001,12.08895,11.34,0.553575,1.244375,0.478775,7.3219266,-6.4551544,12.77006,-0.4744143,9.397436,2.7628796,0.0,-6.9012341,109.4055195
1779785237115,-7.60305,14.89395,-7.3780503,0.74195,0.7398875,1.0014125,-7.8835864,2.691514,8.577121,-0.45281747,9.411795,2.7172558,0.0,-6.9012341,109.4055195
1779785237119,14.884951,11.36295,-14.214001,0.0842875,0.6727875,1.085425,-7.150233,5.482156,-10.095306,-0.40444535,9.418037,2.7032185,0.0,-6.9012341,109.4055195
1779785237128,-0.50895,8.439,-0.23205002,-0.377575,1.2645875,0.5108125,15.289396,1.9449129,-16.91722,-0.44675222,9.406309,2.7371805,0.0,-6.9012341,109.4055195
1779785237131,-8.190001,2.463,7.9459505,-0.1456125,0.671825,0.756525,-7.7432485,-6.943309,5.20877,-0.44675222,9.406309,2.7371805,0.0,-6.9012341,109.4055195
1779785237131,1.25205,10.029,7.3380003,-0.1456125,0.671825,0.756525,-7.7432485,-6.943309,5.20877,-0.41340992,9.399214,2.766634,0.0,-6.9012341,109.4055195
1779785237137,-16.470001,15.157051,-3.86505,0.4120875,0.899525,0.86515,1.66546,0.6297865,4.5713663,-0.40124688,9.4054165,2.747281,0.0,-6.9012341,109.4055195
1779785237141,-3.04605,14.260951,-7.5409503,0.4120875,0.899525,0.86515,-16.068754,5.7516346,-6.6123314,-0.3857054,9.416582,2.7110155,0.0,-6.9012341,109.4055195
1779785237148,15.3810005,10.563001,-3.2040002,-0.1370875,0.58025,1.281225,-2.6603446,4.844369,-10.2519655,-0.32802105,9.418621,2.7115276,0.0,-6.9012341,109.4055195
1779785237151,0.46695003,5.29395,5.142,-0.326425,1.012275,0.8119375,15.709022,1.1443796,-5.915528,-0.2918504,9.413632,2.7328978,0.0,-6.9012341,109.4055195
1779785237156,4.60305,4.887,6.40605,-0.1871375,0.9761125,0.674575,0.7588004,-4.1196823,2.4091024,-0.17730215,9.392479,2.8143034,0.0,-6.9012341,109.4055195
1779785237161,-0.56895,12.10305,4.21005,0.0427625,0.81221247,0.6076125,4.7803526,-4.505479,3.5917468,-0.15875417,9.391974,2.8170946,0.0,-6.9012341,109.4055195
1779785237167,-21.784052,14.949,0.95295006,0.5322625,1.5008125,0.2490125,-0.41019583,2.7110758,1.3929555,-0.16444676,9.398042,2.7964532,0.0,-6.9012341,109.4055195
1779785237172,-5.886,13.119,0.34695002,0.0066,0.8111125,0.781,-21.619606,5.5509586,-1.8435032,-0.16086781,9.402277,2.7823908,0.0,-6.9012341,109.4055195
1779785237177,2.6890502,9.63195,4.9549503,-0.1263625,0.5366625,1.078,-5.7251325,3.7167234,-2.4354408,-0.09006679,9.397376,2.802073,0.0,-6.9012341,109.4055195
1779785237182,-2.05905,3.5010002,7.3690505,-0.0933625,1.16875,0.922625,2.779117,0.23457432,2.1528773,-0.09006679,9.397376,2.802073,0.0,-6.9012341,109.4055195
1779785237190,12.990001,7.9480505,5.46495,-0.0933625,1.16875,0.922625,13.014112,-1.4370794,2.6208067,-0.024111383,9.38513,2.8441434,0.0,-6.9012341,109.4055195
1779785237193,-1.7550001,11.6320505,-4.42995,0.4323,0.996325,0.6969875,13.014112,-1.4370794,2.6208067,-0.005759806,9.396809,2.8054147,0.0,-6.9012341,109.4055195
1779785237196,-11.446951,14.14605,-5.7190504,0.539825,1.242175,0.4213,-1.7492403,2.235242,-7.235365,-0.00845204,9.406139,2.7739608,0.0,-6.9012341,109.4055195
1779785237201,0.06705,12.918,-2.4540002,2.75E-4,0.8559375,0.814,-11.4384985,4.739911,-8.493011,-0.00845204,9.406139,2.7739608,0.0,-6.9012341,109.4055195
1779785237207,-8.34105,6.97305,2.4810002,-0.2116125,0.867625,0.742775,0.054751806,3.5067482,-5.2105503,-0.046456996,9.409104,2.763512,0.0,-6.9012341,109.4055195
1779785237211,-1.575,4.6600504,7.431,-0.17325,0.97405,0.8672125,-8.294593,-2.4360542,-0.2825117,-0.039276436,9.3914795,2.8229363,0.0,-6.9012341,109.4055195
1779785237225,5.0820003,9.93795,5.26095,-0.0221375,0.6323625,0.9906875,-1.5357236,-4.731429,4.6080637,0.011403438,9.397717,2.8023517,0.0,-6.9012341,109.4055195
1779785237225,-7.4809504,9.802051,-2.775,0.13213749,0.9175375,0.890725,-7.492354,0.4043331,-5.5773516,0.011403438,9.397717,2.8023517,0.0,-6.9012341,109.4055195
1779785237227,1.3789501,10.630051,-0.93795,0.13213749,0.9175375,0.890725,-7.492354,0.4043331,-5.5773516,0.051096126,9.413138,2.7496564,0.0,-6.9012341,109.4055195
1779785237232,-0.33195,12.487051,1.03695,0.062975,0.652575,0.7522625,1.327854,1.2169123,-3.6876063,0.07823336,9.4159975,2.7392063,0.0,-6.9012341,109.4055195
1779785237237,-6.078,6.636,5.9820004,-0.0284625,1.13795,0.724625,-0.41018337,3.0710535,-1.7022563,0.019135494,9.405746,2.775242,0.0,-6.9012341,109.4055195
1779785237242,8.787001,8.868,5.0869503,-0.0114124995,0.6153125,0.9428375,-6.0971355,-2.7697463,3.2067583,0.07400851,9.403534,2.7818105,0.0,-6.9012341,109.4055195
1779785237248,1.1850001,11.78205,-1.8870001,0.25753748,0.6716875,0.724625,8.712992,-0.5355339,2.3051398,0.10865093,9.411708,2.7528749,0.0,-6.9012341,109.4055195
1779785237260,-3.6660001,10.750051,-3.5490003,0.498025,1.0740125,0.574475,1.0763491,2.3703423,-4.639875,0.10865093,9.411708,2.7528749,0.0,-6.9012341,109.4055195
1779785237260,6.31995,11.725051,-3.07905,0.498025,1.0740125,0.574475,1.0763491,2.3703423,-4.639875,0.10865093,9.411708,2.7528749,0.0,-6.9012341,109.4055195
1779785237262,-5.8690505,10.792951,-0.91200006,0.0873125,0.7387875,0.484,6.1844683,2.294117,-5.764105,0.12472119,9.436202,2.6670063,0.0,-6.9012341,109.4055195
1779785237267,-3.249,7.7440505,2.4829502,0.0702625,0.89196247,0.5627875,-5.9937716,1.3567486,-3.5790062,0.10271277,9.437646,2.6628356,0.0,-6.9012341,109.4055195
1779785237272,6.1980004,10.37205,5.664,-0.059675,0.31515,0.6862625,-3.351713,-1.6935954,-0.17988539,0.14658509,9.434397,2.6722782,0.0,-6.9012341,109.4055195
1779785237277,-9.081,8.889001,5.3479505,0.1670625,0.8228,0.3744125,6.0514154,0.93765354,2.9917219,0.14658509,9.434397,2.6722782,0.0,-6.9012341,109.4055195
1779785237291,-0.022950001,9.174001,5.58195,0.169125,0.5556375,0.560725,-0.17510968,-0.25489235,2.8906307,0.19188817,9.432208,2.6771278,0.0,-6.9012341,109.4055195
1779785237291,7.2900004,12.634951,0.14595,0.414975,0.7280625,0.460625,7.098112,3.2027426,-2.5311778,0.19188817,9.432208,2.6771278,0.0,-6.9012341,109.4055195
1779785237292,-1.8580501,9.129001,-3.01005,0.414975,0.7280625,0.460625,7.098112,3.2027426,-2.5311778,0.06483327,9.507234,2.4038885,0.0,-6.9012341,109.4055195
1779785237299,9.4459505,9.883051,-3.73305,0.2393875,0.4035625,0.5564625,-1.9228834,-0.37823296,-5.4139385,0.09949951,9.512426,2.3820682,0.0,-6.9012341,109.4055195
1779785237303,-0.04695,14.73795,-4.6980004,0.2149125,0.3034625,0.2787125,9.346451,0.37062454,-6.115118,0.11383769,9.516363,2.365643,0.0,-6.9012341,109.4055195
1779785237307,-13.177051,14.620951,-4.6150503,0.4906,0.830225,0.037125,-0.16078769,5.221587,-7.0636435,0.10361586,9.521989,2.343367,0.0,-6.9012341,109.4055195
1779785237312,4.4160004,13.033051,-5.4289503,0.041525,0.1810875,0.47341248,-13.280666,5.098962,-6.9584174,0.12208821,9.525659,2.32751,0.0,-6.9012341,109.4055195
1779785237320,2.69895,10.116,-3.3930001,-0.0011,0.0704,0.4563625,4.293912,3.507392,-7.75646,0.12208821,9.525659,2.32751,0.0,-6.9012341,109.4055195
1779785237328,-2.63595,7.8040504,2.4430501,0.0298375,0.618475,0.3117125,2.5309832,0.58050346,-5.6769633,0.15607247,9.535384,2.2852755,0.0,-6.9012341,109.4055195
1779785237329,7.1629505,13.023001,1.8889501,-0.0127875,0.078925,0.37235,-2.7920225,-1.7313337,0.15777469,0.18984658,9.537426,2.2741654,0.0,-6.9012341,109.4055195
1779785237332,-4.6069503,14.106001,-5.33295,0.367125,0.4312,0.20955,6.973104,3.4855747,-0.38521528,0.1844206,9.539133,2.2674499,0.0,-6.9012341,109.4055195
1779785237337,-0.48795003,12.261001,-3.8430002,0.301125,0.38747498,0.282975,-4.791371,4.566868,-7.6004,0.1856443,9.547499,2.231866,0.0,-6.9012341,109.4055195
1779785237343,11.380951,9.05895,1.52505,-0.2404875,-9.625E-4,0.476575,-0.67359436,2.713502,-6.0748663,0.22384149,9.544657,2.240498,0.0,-6.9012341,109.4055195
1779785237356,-2.13105,4.8370504,6.67005,-0.14575,0.454575,0.1903,11.157109,-0.48570633,-0.715448,0.20358679,9.534335,2.2859068,0.0,-6.9012341,109.4055195
1779785237357,-1.6900501,10.25895,4.2649503,0.302225,0.0704,0.1563375,-1.893637,0.7246151,1.9790435,0.20358679,9.534335,2.2859068,0.0,-6.9012341,109.4055195
1779785237358,-1.8100501,16.989,2.5549502,0.302225,0.0704,0.1563375,-2.0176408,7.4513884,0.28310895,0.20759076,9.537612,2.2718413,0.0,-6.9012341,109.4055195
1779785237363,-9.021001,11.670001,-2.8540502,0.4246,0.54505,0.119075,-2.0176408,7.4513884,0.28310895,0.19589141,9.543469,2.2481565,0.0,-6.9012341,109.4055195
1779785237368,12.234,6.9949503,-3.5080502,-0.025575,-0.0540375,0.5468375,-9.216892,2.1265316,-5.1022067,0.23339769,9.545097,2.2376423,0.0,-6.9012341,109.4055195
1779785237373,9.357,8.6980505,-3.90105,0.1010625,-0.01045,0.3669875,12.000603,-2.550147,-5.7456923,0.27973056,9.546551,2.2260954,0.0,-6.9012341,109.4055195
1779785237383,-6.46605,9.220051,-2.8660502,0.056375,0.1640375,0.0391875,-6.693782,-0.33640957,-5.055257,0.22773148,9.55646,2.1892064,0.0,-6.9012341,109.4055195
1779785237390,-0.24105,15.01605,1.5160501,0.056375,0.1640375,0.0391875,-6.693782,-0.33640957,-5.055257,0.22300036,9.562804,2.161818,0.0,-6.9012341,109.4055195
1779785237390,-9.378,15.298051,-1.9729501,0.056375,0.1640375,0.0391875,-6.693782,-0.33640957,-5.055257,0.22300036,9.562804,2.161818,0.0,-6.9012341,109.4055195
1779785237393,-0.62895006,12.019951,-5.53905,0.3278,0.2608375,0.295625,-9.601001,5.7352467,-4.134768,0.21884003,9.566687,2.1449983,0.0,-6.9012341,109.4055195
1779785237401,17.66595,9.42105,-10.126051,0.0011,-0.2424125,0.5479375,-0.8477901,2.4532642,-7.6840487,0.2613773,9.565242,2.1466753,0.0,-6.9012341,109.4055195
1779785237404,3.75795,7.2250504,-1.5510001,-0.1628,0.113025,0.1254,17.404573,-0.14419174,-12.272726,0.2810184,9.567411,2.1344986,0.0,-6.9012341,109.4055195
1779785237408,-6.1930504,8.923051,2.124,-0.08305,0.5333625,-0.175725,3.4769316,-2.342361,-3.6854987,0.20617987,9.568831,2.1366653,0.0,-6.9012341,109.4055195
1779785237414,-3.7690501,17.229,3.6349502,-0.025575,-0.0583,-0.11935,-6.3992305,-0.64578056,-0.012665272,0.19625995,9.568371,2.139667,0.0,-6.9012341,109.4055195
1779785237426,-14.641951,14.280001,-2.706,0.27665,0.4098875,-0.0587125,-3.96531,7.6606293,1.4952831,0.2836185,9.585409,2.0518034,0.0,-6.9012341,109.4055195
1779785237426,3.4249501,8.797951,-1.6350001,-0.3608,-0.3883,0.4873,3.1413317,-0.7874584,-3.6868033,0.2836185,9.585409,2.0518034,0.0,-6.9012341,109.4055195
1779785237429,14.583001,5.5789504,4.689,-0.3608,-0.3883,0.4873,3.1413317,-0.7874584,-3.6868033,0.32379678,9.579855,2.0716946,0.0,-6.9012341,109.4055195
1779785237434,-1.30005,3.45495,6.5520005,-0.0787875,0.28105,0.004125,14.259204,-4.0009046,2.6173055,0.32613137,9.575287,2.0923448,0.0,-6.9012341,109.4055195
1779785237439,4.76805,9.979051,3.561,0.1170125,-0.0050875,-0.060775,-1.6261814,-6.1203365,4.459656,0.35042396,9.573312,2.0974529,0.0,-6.9012341,109.4055195
1779785237443,-4.2790504,14.521951,-4.083,0.3628625,0.0086624995,-0.11825,4.4176264,0.40573883,1.4635472,0.34203342,9.578114,2.0768132,0.0,-6.9012341,109.4055195
1779785237450,-11.77305,12.324,-7.1370006,0.498025,0.3364625,-0.241725,-4.6210837,4.943837,-6.1598134,0.32069752,9.584727,2.0495284,0.0,-6.9012341,109.4055195
1779785237454,6.3040504,9.29205,-0.49800003,-0.2234375,-0.2435125,0.24887499,-12.093748,2.739273,-9.186529,0.37755483,9.584567,2.040559,0.0,-6.9012341,109.4055195
1779785237458,-0.21495001,6.7579503,5.57805,-0.2745875,-0.2349875,0.0829125,5.9264956,-0.2925167,-2.538559,0.3866941,9.575276,2.0820558,0.0,-6.9012341,109.4055195
1779785237464,-1.52505,5.2849503,4.3489504,0.023375,0.2215125,0.0072875,-0.6016441,-2.817326,3.4959943,0.3810878,9.573783,2.0899324,0.0,-6.9012341,109.4055195
1779785237472,9.181951,13.842001,-2.7150002,0.270325,-0.330825,0.1062875,-1.9061378,-4.2888327,2.259018,0.39426616,9.575904,2.077742,0.0,-6.9012341,109.4055195
1779785237474,-6.80595,15.294001,-10.5060005,0.463925,0.093775,-0.1799875,8.787684,4.266097,-4.7927423,0.38784724,9.581398,2.0534735,0.0,-6.9012341,109.4055195
1779785237480,0.033,11.884951,-8.158951,0.2182125,0.0075625,-0.0427625,-7.1937976,5.7126026,-12.559474,0.3780039,9.588246,2.023129,0.0,-6.9012341,109.4055195
1779785237485,10.243051,8.71695,-3.4099503,-0.35227498,-0.3658875,0.1606,-0.3450039,2.2967043,-10.182079,0.40856913,9.585504,2.0301654,0.0,-6.9012341,109.4055195
1779785237489,-4.81605,5.6940002,1.3120501,-0.1863125,0.0246125,-0.1799875,9.834481,-0.86855316,-5.440116,0.38908175,9.584209,2.040078,0.0,-6.9012341,109.4055195
1779785237494,0.060000002,8.70705,1.4250001,-0.0851125,-0.04235,-0.126775,-5.205132,-3.8902092,-0.7280278,0.37700054,9.584447,2.0412328,0.0,-6.9012341,109.4055195
1779785237506,-1.25205,14.716051,4.572,-0.033,-0.313775,-0.1065625,-0.31700054,-0.8773966,-0.61623275,0.34828883,9.586286,2.0376902,0.0,-6.9012341,109.4055195
1779785237507,-12.4800005,9.375,0.15795001,-0.124575,-0.4085125,0.234025,-12.828289,-0.21128559,-1.8797401,0.34828883,9.586286,2.0376902,0.0,-6.9012341,109.4055195
1779785237510,9.13395,6.5329504,-0.90900004,-0.124575,-0.4085125,0.234025,-12.828289,-0.21128559,-1.8797401,0.42837593,9.584996,2.028481,0.0,-6.9012341,109.4055195
1779785237515,7.4389505,8.619,-2.052,-0.0031625,-0.451,0.1148125,8.705574,-3.0520458,-2.937481,0.48948902,9.584704,2.015995,0.0,-6.9012341,109.4055195
1779785237520,-4.4830503,6.26205,-1.1149501,0.1309,0.2385625,-0.2055625,6.9494615,-0.96570396,-4.067995,0.46212697,9.589021,2.0018787,0.0,-6.9012341,109.4055195
1779785237531,7.28595,9.330001,0.79200006,-0.1362625,-0.4393125,-0.092675,-4.945177,-3.3269706,-3.116829,0.48479283,9.587866,2.0020547,0.0,-6.9012341,109.4055195
1779785237532,-9.033,11.965051,2.5480502,-0.1362625,-0.4393125,-0.092675,-9.517793,2.3771849,0.5459955,0.48479283,9.587866,2.0020547,0.0,-6.9012341,109.4055195
1779785237539,-11.541,11.203051,0.30105,0.2341625,0.08635,-0.31405,-12.000439,1.6124296,-1.6937678,0.45943815,9.590621,1.9948177,0.0,-6.9012341,109.4055195
1779785237540,11.84805,10.71405,-1.24995,-0.1511125,-0.6149,0.282975,-12.000439,1.6124296,-1.6937678,0.46963236,9.590447,1.9932735,0.0,-6.9012341,109.4055195
1779785237546,3.3340502,7.6770005,-6.2140503,0.1329625,-0.33715,0.045649998,11.378418,1.1236029,-3.2432237,0.5237474,9.608249,1.8914696,0.0,-6.9012341,109.4055195
1779785237552,6.45195,5.72805,-9.814051,0.1192125,-0.0658625,-0.0820875,2.8103027,-1.9312482,-8.10552,0.5351729,9.613461,1.8615485,0.0,-6.9012341,109.4055195
1779785237555,7.9510503,12.484051,-4.2840004,-0.050049998,-0.49995,-0.177925,5.916777,-3.8854103,-11.675599,0.54144555,9.614011,1.8568828,0.0,-6.9012341,109.4055195
1779785237560,-21.823051,14.27595,4.44705,-0.2096875,0.2129875,-0.6716875,7.4096045,2.87004,-6.1408834,0.5133353,9.613843,1.8657185,0.0,-6.9012341,109.4055195
1779785237566,-8.602051,9.562051,7.2450004,-0.204325,-0.2520375,-0.2789875,-22.336388,4.6621075,2.5813317,0.5133353,9.613843,1.8657185,0.0,-6.9012341,109.4055195
1779785237576,10.03005,6.11595,3.66195,-0.3416875,-0.7255875,0.328625,-9.080485,-0.051283836,5.367425,0.54211676,9.604322,1.9061726,0.0,-6.9012341,109.4055195
1779785237577,-2.7529502,5.4640503,2.60295,0.099,-0.3403125,-0.012925,-3.2950668,-4.140272,0.69677746,0.54211676,9.604322,1.9061726,0.0,-6.9012341,109.4055195
1779785237581,7.5660005,7.0399504,-2.42805,0.099,-0.3403125,-0.012925,-3.2950668,-4.140272,0.69677746,0.6425585,9.605751,1.8673716,0.0,-6.9012341,109.4055195
1779785237589,2.22,13.774951,1.8559501,0.024475,-0.5127375,-0.1342,6.923442,-2.5658007,-4.2954216,0.64691156,9.606385,1.8625965,0.0,-6.9012341,109.4055195
1779785237591,-20.347052,12.166051,5.62095,0.064899996,0.292875,-0.5226375,1.5730884,4.1685658,-0.0066463947,0.62193716,9.608278,1.861344,0.0,-6.9012341,109.4055195
1779785237595,1.6639501,10.08705,5.5200005,-0.239525,-0.5841,0.0286,-20.968988,2.5577726,3.7596064,0.6253524,9.603676,1.8838124,0.0,-6.9012341,109.4055195
1779785237607,6.97905,9.28005,-2.7109501,0.123475,-0.6182,0.2563,1.0385977,0.4833746,3.636188,0.6673327,9.611267,1.8299136,0.0,-6.9012341,109.4055195
1779785237607,-2.4109502,8.973001,-9.15795,0.123475,-0.6182,0.2563,-3.0782828,-0.63826656,-10.987864,0.6673327,9.611267,1.8299136,0.0,-6.9012341,109.4055195
1779785237612,11.484,13.332001,-8.254951,0.1170125,-0.5542625,0.036025,-3.0782828,-0.63826656,-10.987864,0.67394775,9.613276,1.8168905,0.0,-6.9012341,109.4055195
1779785237615,-7.3759503,16.816952,1.53495,-0.1744875,-0.2924625,-0.2684,10.810053,3.7187252,-10.071841,0.6673203,9.613004,1.8207804,0.0,-6.9012341,109.4055195
1779785237621,-13.504951,11.2240505,4.9840503,-0.139425,-0.0264,-0.4503125,-8.043271,7.203948,-0.28583038,0.6372361,9.613575,1.828523,0.0,-6.9012341,109.4055195
1779785237625,14.305051,7.5030003,2.77305,-0.4268,-0.85965,0.2872375,-14.142187,1.6104755,3.155527,0.66055256,9.608646,1.846075,0.0,-6.9012341,109.4055195
1779785237631,2.4139502,9.868951,0.50505,0.0947375,-0.5446375,-0.0235125,13.644498,-2.1056461,0.926975,0.7142131,9.609128,1.8234518,0.0,-6.9012341,109.4055195
1779785237648,-3.1750503,8.3890505,0.17895001,0.0298375,-0.066825,-0.292875,-19.270622,6.602231,4.6778607,0.7142131,9.609128,1.8234518,0.0,-6.9012341,109.4055195
1779785237648,7.9200006,12.012001,3.4699502,0.1574375,-0.328625,-0.2226125,-19.270622,6.602231,4.6778607,0.7142131,9.609128,1.8234518,0.0,-6.9012341,109.4055195
1779785237648,-18.619951,16.218,6.4900503,0.1574375,-0.328625,-0.2226125,-19.270622,6.602231,4.6778607,0.7142131,9.609128,1.8234518,0.0,-6.9012341,109.4055195
1779785237651,-7.3780503,12.24495,1.4130001,0.1574375,-0.328625,-0.2226125,-7.997435,2.6252584,-0.3893001,0.7142131,9.609128,1.8234518,0.0,-6.9012341,109.4055195
1779785237655,19.39005,7.3729506,-3.0240002,-0.1511125,-0.85965,0.56168747,-7.997435,2.6252584,-0.3893001,0.6518746,9.617086,1.8047423,0.0,-6.9012341,109.4055195
1779785237661,-0.23595001,6.98505,-2.01405,0.0638,-0.3243625,-0.0587125,18.738176,-2.2441359,-4.8287425,0.6612152,9.618136,1.7957273,0.0,-6.9012341,109.4055195
1779785237666,-1.5799501,7.122,0.51495004,-0.0361625,-0.132825,-0.2715625,-0.8971652,-2.6330862,-3.8097773,0.6424578,9.6198225,1.7935044,0.0,-6.9012341,109.4055195
1779785237677,-2.4109502,14.806951,7.3309503,-0.0884125,-0.4500375,-0.15235,-2.2224078,-2.4978223,-1.2785543,0.6173,9.62121,1.7948961,0.0,-6.9012341,109.4055195
1779785237677,-24.960001,12.585001,1.065,0.0702625,-0.59894997,0.2850375,-25.577301,2.963791,-0.72989607,0.6173,9.62121,1.7948961,0.0,-6.9012341,109.4055195
1779785237682,3.8580003,6.9919505,-3.5299501,0.0702625,-0.59894997,0.2850375,-25.577301,2.963791,-0.72989607,0.64969325,9.626282,1.7558483,0.0,-6.9012341,109.4055195
1779785237687,17.706001,5.1120005,-4.38,-0.1021625,-0.655325,0.7161,3.208307,-2.6343312,-5.2857985,0.69781476,9.622226,1.7596055,0.0,-6.9012341,109.4055195
1779785237690,-4.281,6.0340505,-3.3240001,0.0851125,0.0086624995,-0.028875,17.008186,-4.5102253,-6.1396055,0.6812244,9.627494,1.7371447,0.0,-6.9012341,109.4055195
1779785237696,3.7669501,5.781,-0.933,-0.072325,-0.2371875,-0.0171875,-4.9622245,-3.5934434,-5.061145,0.6847041,9.6275425,1.7355028,0.0,-6.9012341,109.4055195
1779785237701,-7.6099505,13.033051,10.851001,-0.2171125,-0.1882375,-0.0066,3.082246,-3.8465424,-2.6685028,0.685984,9.625258,1.7476317,0.0,-6.9012341,109.4055195
1779785237707,-23.097002,12.469951,1.60905,0.1628,0.3268375,-0.2853125,-8.295935,3.407792,9.103369,0.685984,9.625258,1.7476317,0.0,-6.9012341,109.4055195
1779785237711,13.972051,9.261001,-12.906,0.27775,-0.704275,0.6947875,-23.766064,2.843483,-0.13848162,0.6951893,9.628143,1.7280034,0.0,-6.9012341,109.4055195
1779785237717,15.523951,10.72095,-11.491051,0.1489125,-0.40205,0.723525,13.276861,-0.36714268,-14.634004,0.7435784,9.626525,1.716821,0.0,-6.9012341,109.4055195
1779785237728,-5.7640505,8.42895,1.233,-0.2968625,0.24915,-0.02145,-6.370838,-1.2082529,-0.4777062,0.65578544,9.626529,1.7522224,0.0,-6.9012341,109.4055195
1779785237728,7.14405,7.85895,4.7710505,-0.46928748,-0.2105125,0.148775,6.4882646,-1.7675786,3.018828,0.65578544,9.626529,1.7522224,0.0,-6.9012341,109.4055195
1779785237733,-5.26305,16.173,4.5139503,-0.0435875,-0.053075,0.10835,6.4882646,-1.7675786,3.018828,0.66232044,9.624542,1.7606583,0.0,-6.9012341,109.4055195
1779785237737,-15.259951,15.865951,-6.7099504,0.399025,0.3982,-0.1384625,-5.9253707,6.548458,2.753292,0.6501867,9.628151,1.7453911,0.0,-6.9012341,109.4055195
1779785237741,13.24005,11.644051,-5.3260503,-0.1989625,-0.5160375,0.609675,-15.910137,6.2377996,-8.455341,0.67805904,9.626753,1.7424932,0.0,-6.9012341,109.4055195
1779785237746,0.17505,10.10595,6.1480503,-0.3608,-0.0169125,0.4074125,12.561992,2.0172977,-7.0685434,0.70508176,9.618323,1.7779479,0.0,-6.9012341,109.4055195
1779785237753,-11.292001,7.04505,11.43795,-0.4373875,0.3843125,-0.0501875,-0.53003174,0.48762703,4.3701024,0.69520426,9.614358,1.8031127,0.0,-6.9012341,109.4055195
1779785237758,10.866,10.441051,8.88,-0.2096875,-0.3084125,0.5000875,-11.9872055,-2.5693078,9.634837,0.71989995,9.609234,1.8206483,0.0,-6.9012341,109.4055195
1779785237761,-9.024,16.683,-0.51705,0.34375,0.2140875,0.2371875,10.1461,0.8318167,7.059352,0.7341014,9.610422,1.8086668,0.0,-6.9012341,109.4055195
1779785237766,-7.79295,14.055,-7.3980002,0.4043875,0.2673,0.0562375,-9.758101,7.0725784,-2.325717,0.7253885,9.615674,1.7841029,0.0,-6.9012341,109.4055195
1779785237774,12.68595,7.20795,0.58395004,-0.4032875,-0.216975,0.79695,11.908025,-2.4016175,-1.2108887,0.7779252,9.609568,1.7948388,0.0,-6.9012341,109.4055195
1779785237777,-10.82505,9.229051,6.0060005,-0.2607,0.2662,0.199925,11.908025,-2.4016175,-1.2108887,0.7830617,9.605695,1.8132354,0.0,-6.9012341,109.4055195
1779785237783,-5.2440004,6.216,-0.555,0.01705,0.390775,0.249975,-11.608112,-0.37664413,4.192765,0.75381106,9.608827,1.8090415,0.0,-6.9012341,109.4055195
1779785237786,9.858001,8.20005,-1.64505,0.0383625,-0.10945,0.7788,-5.9978113,-3.3928266,-2.3640416,0.81835425,9.604988,1.8013574,0.0,-6.9012341,109.4055195
1779785237791,-17.06595,11.29605,0.76395005,-0.093637496,0.51315,0.166925,9.039646,-1.4049377,-3.4464073,0.8271029,9.603362,1.8060218,0.0,-6.9012341,109.4055195
1779785237796,-4.74405,10.42695,0.67995006,0.1329625,0.4855125,0.4808375,-17.893053,1.692688,-1.0420718,0.7926376,9.608943,1.7917361,0.0,-6.9012341,109.4055195
1779785237801,6.6529503,9.45705,-0.64605004,-0.1841125,-0.051975,0.901175,-5.536688,0.81800747,-1.1117861,0.87584543,9.601824,1.7911662,0.0,-6.9012341,109.4055195
1779785237806,-7.7710505,6.9679503,6.0019503,-0.1607375,0.356675,0.494725,5.777105,-0.14477348,-2.4372163,0.8585123,9.599441,1.8122038,0.0,-6.9012341,109.4055195
1779785237813,12.319951,2.5930502,-3.42195,0.0042625,0.3641,0.90021247,-8.629562,-2.6314902,4.1897464,0.9278433,9.592952,1.8123932,0.0,-6.9012341,109.4055195
1779785237818,14.680951,11.802001,-9.0,0.2905375,-0.0391875,0.7682125,11.392108,-6.999902,-5.2343435,0.9738354,9.590718,1.8000498,0.0,-6.9012341,109.4055195
1779785237824,-15.415951,12.333,-7.9600506,0.27885,0.962225,0.135025,13.707116,2.2112827,-10.80005,0.9770278,9.592731,1.7875499,0.0,-6.9012341,109.4055195
1779785237827,-3.2350502,9.12195,2.2459502,-0.2809125,0.3546125,0.361625,-16.392979,2.7402687,-9.747601,0.8132507,9.606362,1.7963375,0.0,-6.9012341,109.4055195
1779785237832,-1.8190501,8.592,11.92905,-0.5779125,0.3333,0.7288875,-4.0483007,-0.4844122,0.44961274,0.843186,9.5957985,1.8384956,0.0,-6.9012341,109.4055195
1779785237837,-11.284051,8.21595,3.1200001,0.0638,0.5812125,0.4830375,-2.6622362,-1.0037985,10.090555,0.8421695,9.5947075,1.844643,0.0,-6.9012341,109.4055195
1779785237842,20.080051,5.958,-11.665951,0.31707498,0.0490875,1.099175,-12.126221,-1.3787575,1.2753571,0.8864046,9.593392,1.8307161,0.0,-6.9012341,109.4055195
1779785237847,13.09605,13.417951,-1.21395,0.0202125,0.21945,0.8416375,19.193647,-3.6353922,-13.496667,0.8864046,9.593392,1.8307161,0.0,-6.9012341,109.4055195
1779785237856,-15.162001,13.120951,2.457,-0.0468875,1.1389124,0.07535,12.156865,3.8287182,-3.0401316,0.9368105,9.58819,1.8328578,0.0,-6.9012341,109.4055195
1779785237857,5.80095,7.48605,1.2930001,-0.1639,0.1406625,0.4723125,-16.098812,3.5327606,0.62414217,1.0937331,9.568703,1.8477193,0.0,-6.9012341,109.4055195
1779785237862,-0.65805006,8.50605,8.907001,-0.3617625,0.4588375,0.689425,4.707217,-2.0826526,-0.5547192,1.1218491,9.5570965,1.8904315,0.0,-6.9012341,109.4055195
1779785237867,-14.391001,10.848001,3.0700502,0.16499999,0.8823375,0.2585,-1.7798991,-1.0510464,7.016569,1.1216015,9.557007,1.8910313,0.0,-6.9012341,109.4055195
1779785237873,14.296051,9.865951,-11.625001,0.27775,0.1395625,0.9235875,-15.512602,1.2909937,1.179019,1.1567197,9.554996,1.8800118,0.0,-6.9012341,109.4055195
1779785237878,2.25795,15.427951,0.024,0.0510125,0.4684625,0.7607875,13.139332,0.31095505,-13.5050125,1.1966993,9.551682,1.8718092,0.0,-6.9012341,109.4055195
1779785237884,-14.118001,9.94305,-1.14195,-0.237325,-0.089237496,0.966075,-15.310391,0.39278698,-3.023727,1.1923908,9.550263,1.881777,0.0,-6.9012341,109.4055195
1779785237894,19.18905,4.26,-7.79295,-0.237325,-0.089237496,0.966075,-15.310391,0.39278698,-3.023727,1.2866914,9.53993,1.8720436,0.0,-6.9012341,109.4055195
1779785237894,6.4950004,8.382,-7.254,-0.237325,-0.089237496,0.966075,-15.310391,0.39278698,-3.023727,1.2866914,9.53993,1.8720436,0.0,-6.9012341,109.4055195
1779785237897,-13.222051,8.72595,-4.959,-0.042625,0.93775,0.0339625,5.208309,-1.1579304,-9.126043,1.2741094,9.541745,1.8713977,0.0,-6.9012341,109.4055195
1779785237903,6.9210005,6.7840505,4.512,-0.50655,0.3014,0.642675,5.545255,-2.731691,2.5811028,1.3757452,9.515741,1.9308974,0.0,-6.9012341,109.4055195
1779785237907,-10.99695,12.1369505,11.565001,-0.08305,0.880275,0.215875,-12.393106,2.6288795,9.611097,1.3961563,9.508071,1.9539036,0.0,-6.9012341,109.4055195
1779785237912,-10.03905,7.1070004,-4.68405,0.12979999,0.715275,0.3254625,-12.393106,2.6288795,9.611097,1.3688431,9.514264,1.9430479,0.0,-6.9012341,109.4055195
1779785237929,23.655,4.34805,-4.6579504,-0.041525,-0.0488125,1.25235,-11.407893,-2.4072638,-6.627098,1.4198066,9.507676,1.9387183,0.0,-6.9012341,109.4055195
1779785237930,1.9849501,12.67605,7.2130504,-0.1309,0.6939625,0.60115,-9.984441,0.96321106,4.3797145,1.4444904,9.49974,1.9592859,0.0,-6.9012341,109.4055195
1779785237930,-8.53995,10.462951,6.339,-0.058575,0.8504375,0.117975,-9.984441,0.96321106,4.3797145,1.4444904,9.49974,1.9592859,0.0,-6.9012341,109.4055195
1779785237933,9.805051,5.5939503,10.090051,-0.4192375,0.25245,0.5542625,8.32947,-3.8949394,8.101574,1.4755808,9.48889,1.9884763,0.0,-6.9012341,109.4055195
1779785237939,-14.500951,14.830951,24.321001,-0.198,0.7440125,0.2627625,8.32947,-3.8949394,8.101574,1.4755808,9.48889,1.9884763,0.0,-6.9012341,109.4055195
1779785237943,-11.36295,17.81295,-5.9680505,0.710875,0.862125,0.3542,-15.990738,5.348241,22.313732,1.4884218,9.486068,1.9923692,0.0,-6.9012341,109.4055195
1779785237948,25.998001,15.81105,-31.78395,1.1642125,-0.231825,1.2172875,-12.851372,8.326882,-7.9604197,1.5376468,9.490053,1.935179,0.0,-6.9012341,109.4055195
1779785237960,11.467051,13.753951,-12.691051,0.0873125,0.42267498,0.78842497,24.460354,6.320997,-33.71913,1.5682027,9.480226,1.9586867,0.0,-6.9012341,109.4055195
1779785237961,-9.723001,7.18905,9.12705,0.0873125,0.42267498,0.78842497,-11.2912035,-2.2911754,7.1683636,1.5682027,9.480226,1.9586867,0.0,-6.9012341,109.4055195
1779785237965,8.79405,4.5160503,13.105051,-0.7055125,0.1651375,0.3829375,-11.2912035,-2.2911754,7.1683636,1.583059,9.466967,2.010183,0.0,-6.9012341,109.4055195
1779785237974,-1.89795,16.309052,1.9470001,0.37454998,0.62479997,0.4882625,7.2109914,-4.9509163,11.094868,1.6004701,9.464964,2.00583,0.0,-6.9012341,109.4055195
1779785237976,-2.67705,11.710951,-25.366951,1.0344125,0.5951,0.1137125,-3.4984202,6.8440876,-0.058829904,1.5996625,9.473365,1.9664292,0.0,-6.9012341,109.4055195
1779785237980,19.723051,3.7420502,-11.29695,-0.67045,0.4258375,0.609675,-4.2767124,2.237586,-27.33338,1.645165,9.463866,1.9746038,0.0,-6.9012341,109.4055195
1779785237992,-12.178051,6.3630004,15.658051,-0.6587625,0.865425,-0.3768875,18.077887,-5.721816,-13.271554,1.6229274,9.455428,2.0325825,0.0,-6.9012341,109.4055195
1779785237992,-18.45,7.21005,14.905951,0.482075,-0.0903375,0.9128625,-20.072927,-2.245378,12.873368,1.6229274,9.455428,2.0325825,0.0,-6.9012341,109.4055195
1779785237996,17.457,6.834,-3.384,0.482075,-0.0903375,0.9128625,-20.072927,-2.245378,12.873368,1.6718905,9.4513645,2.011683,0.0,-6.9012341,109.4055195
1779785238002,9.943951,11.821051,-7.9200006,0.4246,0.5993625,0.27445,15.78511,-2.6173644,-5.3956833,1.6937453,9.452104,1.9898189,0.0,-6.9012341,109.4055195
1779785238006,3.0660002,8.16405,-14.865001,0.1117875,0.2118875,0.2360875,8.250205,2.368947,-9.90982,1.6978035,9.45472,1.9738667,0.0,-6.9012341,109.4055195
1779785238011,10.9810505,8.89605,-2.60505,-0.4437125,0.4406875,0.0955625,9.261255,-0.55130005,-4.5950894,1.7197957,9.4473505,1.9900393,0.0,-6.9012341,109.4055195
1779785238018,-16.434,15.792001,11.44095,-0.0968,0.74305,-0.289575,9.261255,-0.55130005,-4.5950894,1.7197957,9.4473505,1.9900393,0.0,-6.9012341,109.4055195
1779785238025,-5.6389503,12.847951,-3.3330002,0.2723875,-0.0988625,0.575575,-7.336564,3.3966255,-5.3232074,1.6976136,9.451325,1.9902071,0.0,-6.9012341,109.4055195
1779785238026,26.901001,12.901051,-16.587,-0.27885,0.8259625,-0.1959375,25.164963,3.4536467,-18.562635,1.7360376,9.447404,1.9756349,0.0,-6.9012341,109.4055195
1779785238031,5.0010004,15.361051,-1.0890001,-0.27885,0.8259625,-0.1959375,25.164963,3.4536467,-18.562635,1.7328053,9.445838,1.9859319,0.0,-6.9012341,109.4055195
1779785238037,-8.64,10.111051,4.596,-0.53955,-0.0317625,-0.2385625,3.2681952,5.9152126,-3.074932,1.6947023,9.447289,2.0117443,0.0,-6.9012341,109.4055195
1779785238042,6.3900003,8.262,14.599951,-0.31501248,0.28215,0.2127125,-10.3347025,0.66376114,2.584256,1.7046102,9.439402,2.040196,0.0,-6.9012341,109.4055195
1779785238047,-11.41905,15.777,9.618,0.4874375,0.34705,-0.1907125,4.68539,-1.1774015,12.559755,1.7046102,9.439402,2.040196,0.0,-6.9012341,109.4055195
1779785238061,3.834,10.923,-9.217951,0.3086875,-0.265925,0.583,-13.111471,6.3329334,7.5892763,1.7055801,9.441842,2.0280554,0.0,-6.9012341,109.4055195
1779785238061,25.07595,2.7150002,-5.841,-0.3873375,0.70675,-0.7110125,-12.88253,0.3002081,16.558895,1.7055801,9.441842,2.0280554,0.0,-6.9012341,109.4055195
1779785238061,-11.17695,9.74205,18.58695,-0.3873375,0.70675,-0.7110125,-12.88253,0.3002081,16.558895,1.7055801,9.441842,2.0280554,0.0,-6.9012341,109.4055195
1779785238067,-19.095001,10.971001,8.562,0.50545,0.0363,-0.0906125,-12.88253,0.3002081,16.558895,1.6843336,9.448644,2.0140913,0.0,-6.9012341,109.4055195
1779785238072,6.86595,13.33005,-2.502,0.401225,-0.280775,0.4329875,-20.779335,1.522357,6.547909,1.7112519,9.449508,1.9871675,0.0,-6.9012341,109.4055195
1779785238077,-0.17205001,10.242001,-1.5990001,-0.124575,-0.24887499,0.427625,-1.8417071,0.76991653,-3.5127015,1.6696571,9.472084,1.9137013,0.0,-6.9012341,109.4055195
1779785238082,11.185051,-0.86505,-1.9750501,-0.124575,-0.24887499,0.427625,-1.8417071,0.76991653,-3.5127015,1.7769212,9.451309,1.9198189,0.0,-6.9012341,109.4055195
1779785238099,19.840052,6.5329504,-3.012,0.3628625,0.0342375,-0.0895125,9.40813,-10.3163595,-3.8948689,1.7464826,9.470595,1.8514912,0.0,-6.9012341,109.4055195
1779785238099,-14.853001,23.791052,-3.5490003,0.3628625,0.0342375,-0.0895125,9.40813,-10.3163595,-3.8948689,1.7464826,9.470595,1.8514912,0.0,-6.9012341,109.4055195
1779785238099,-8.86095,18.514952,-21.535051,0.3628625,0.0342375,-0.0895125,-10.607433,9.044356,-23.386543,1.7464826,9.470595,1.8514912,0.0,-6.9012341,109.4055195
1779785238102,23.514002,7.9069505,-12.918,-0.53955,-0.2116125,0.5405125,-10.607433,9.044356,-23.386543,1.7777216,9.461821,1.8665684,0.0,-6.9012341,109.4055195
1779785238107,5.37195,4.54995,-2.6940002,-0.2404875,0.240625,-0.374825,21.73628,-1.5548701,-14.784569,1.7828673,9.458731,1.8772786,0.0,-6.9012341,109.4055195
1779785238112,1.4460001,7.8930006,-7.6800003,-0.047849998,-0.2668875,-0.2556125,3.5890827,-4.9087806,-4.5712786,1.7556843,9.476758,1.810815,0.0,-6.9012341,109.4055195
1779785238118,8.337001,15.837001,-2.184,0.0383625,0.13213749,-0.2992,-0.30968416,-1.5837574,-9.490815,1.7157408,9.483221,1.8152573,0.0,-6.9012341,109.4055195
1779785238130,-18.781052,20.769001,4.05405,-0.1362625,0.1577125,-0.65999997,6.62126,6.35378,-3.9992573,1.7233173,9.48733,1.7863731,0.0,-6.9012341,109.4055195
1779785238130,1.7629501,3.9889503,-7.0260005,-0.4448125,-0.1903,0.0721875,0.039632797,-5.49838,-8.812374,1.7233173,9.48733,1.7863731,0.0,-6.9012341,109.4055195
1779785238134,23.32995,0.58095,1.1200501,-0.4448125,-0.1903,0.0721875,0.039632797,-5.49838,-8.812374,1.744311,9.479644,1.8066894,0.0,-6.9012341,109.4055195
1779785238137,-13.447051,9.969001,14.644951,-0.171325,0.3694625,-0.8333875,21.58564,-8.898694,-0.6866393,1.7060643,9.483925,1.8206898,0.0,-6.9012341,109.4055195
1779785238142,-12.8220005,9.988951,10.1980505,0.01595,-0.295625,-0.1065625,-15.153115,0.48507595,12.824261,1.6849961,9.4869585,1.8244987,0.0,-6.9012341,109.4055195
1779785238148,8.847,9.859051,6.6529503,0.041525,-0.24145,0.135025,-14.506996,0.5019922,8.373552,1.7080979,9.482401,1.8267099,0.0,-6.9012341,109.4055195
1779785238156,-10.98495,15.919051,8.368051,0.2671625,0.1747625,-0.2938375,7.138902,0.37664986,4.8262405,1.7080979,9.482401,1.8267099,0.0,-6.9012341,109.4055195
1779785238158,3.2740502,8.22795,-10.633051,0.433125,-0.56168747,0.40205,-12.677895,6.432354,6.549555,1.7061961,9.492404,1.7758284,0.0,-6.9012341,109.4055195
1779785238163,21.889952,9.94305,-11.257951,0.0202125,-0.247775,0.1126125,1.5678542,-1.2644539,-12.408879,1.7252222,9.490953,1.7651638,0.0,-6.9012341,109.4055195
1779785238168,-9.9529505,16.374,2.3080502,-0.023375,0.355575,-0.5748875,20.16473,0.45209694,-13.023114,1.6950488,9.4956875,1.7689375,0.0,-6.9012341,109.4055195
1779785238176,-0.19095,6.4339504,-3.8770502,-0.24365,-0.4552625,0.214775,-11.647999,6.878313,0.5391127,1.6891173,9.497655,1.7640398,0.0,-6.9012341,109.4055195
1779785238177,26.07405,4.0630503,-11.698951,0.1681625,-0.2371875,0.135025,-1.8800673,-3.0637045,-5.64109,1.7071382,9.495743,1.7569665,0.0,-6.9012341,109.4055195
1779785238184,-9.46695,21.484951,-1.11105,0.268125,0.57695,-0.8845375,24.366913,-5.4326925,-13.455917,1.6698742,9.503847,1.7489492,0.0,-6.9012341,109.4055195
1779785238188,-18.939001,17.490002,-11.3880005,-0.0947375,-0.494725,-0.36519998,-11.136825,11.981104,-2.8599992,1.6615418,9.501261,1.770798,0.0,-6.9012341,109.4055195
1779785238193,14.650051,3.93195,-3.35205,-0.7651875,-0.4712125,0.4255625,-20.600542,7.988741,-13.158798,1.6776206,9.498722,1.7692606,0.0,-6.9012341,109.4055195
1779785238197,1.10595,3.24705,8.535001,-0.30965,0.0268125,-0.34814999,12.97243,-5.566772,-5.1213107,1.6978484,9.470737,1.895477,0.0,-6.9012341,109.4055195
1779785238202,-2.025,7.00395,-1.7500501,0.089375,-0.4063125,-0.1161875,-0.59189844,-6.223687,6.6395235,1.6751024,9.477053,1.8841193,0.0,-6.9012341,109.4055195
1779785238210,16.636051,9.901951,3.2689502,-0.2490125,-0.1626625,-0.0033,-3.7001023,-2.4731026,-3.6341693,1.687557,9.4744005,1.8863416,0.0,-6.9012341,109.4055195
1779785238213,-18.441,15.258,25.44,-0.54065,0.389675,-0.846175,14.948494,0.42755032,1.3826087,1.6517394,9.475141,1.9141233,0.0,-6.9012341,109.4055195
1779785238221,-15.67905,5.1270003,16.554,-0.0350625,-0.4585625,0.10835,-20.09274,5.78286,23.525877,1.6402906,9.475261,1.923353,0.0,-6.9012341,109.4055195
1779785238225,18.858002,3.3280501,-9.682051,0.9376125,-0.2574,0.53295,-17.319342,-4.3482604,14.630648,1.6760029,9.476909,1.8840398,0.0,-6.9012341,109.4055195
1779785238228,-2.049,21.112951,-19.91595,0.825825,0.0820875,-0.4076875,17.182,-6.1488585,-11.566091,1.6661305,9.487538,1.8387574,0.0,-6.9012341,109.4055195
1779785238233,-9.189,19.82295,-14.7619505,-0.3331625,-0.1871375,0.0594,-3.7151306,11.625413,-21.754707,1.6578491,9.489211,1.8376036,0.0,-6.9012341,109.4055195
1779785238246,20.52,2.94,-2.9329503,-0.9194625,-0.493625,0.4797375,-10.846849,10.333739,-16.599554,1.6703677,9.475599,1.8956028,0.0,-6.9012341,109.4055195
1779785238247,6.9930005,7.2420006,13.510051,0.5790125,0.02035,-0.22687499,5.322633,-2.2335987,11.614448,1.6703677,9.475599,1.8956028,0.0,-6.9012341,109.4055195
1779785238251,-7.7370005,8.65695,-4.7629504,0.5790125,0.02035,-0.22687499,5.322633,-2.2335987,11.614448,1.6272221,9.488131,1.8702743,0.0,-6.9012341,109.4055195
1779785238257,13.498051,13.83495,-16.908,0.204325,-0.3851375,0.0584375,-9.364223,-0.8311806,-6.6332245,1.6352879,9.490877,1.8491818,0.0,-6.9012341,109.4055195
1779785238258,-9.46905,19.56405,-1.6110001,-0.34375,0.423775,-0.57585,11.862762,4.3440733,-18.757183,1.6093551,9.493258,1.8596863,0.0,-6.9012341,109.4055195
1779785238263,-16.639952,7.24905,9.60795,-0.921525,-0.2765125,-0.0331375,-11.078405,10.070792,-3.4706864,1.5926313,9.488418,1.8983862,0.0,-6.9012341,109.4055195
1779785238269,18.552,-5.4220505,11.625001,-0.6842,-0.658625,0.4489375,-18.232582,-2.2393675,7.709564,1.6236132,9.476096,1.9333618,0.0,-6.9012341,109.4055195
1779785238278,-2.32905,12.594001,27.315,0.0691625,0.374825,-0.454575,16.928387,-14.898147,9.691639,1.5918063,9.485211,1.9150317,0.0,-6.9012341,109.4055195
1779785238278,-23.164051,19.705051,11.718,0.0691625,0.374825,-0.454575,16.928387,-14.898147,9.691639,1.5918063,9.485211,1.9150317,0.0,-6.9012341,109.4055195
1779785238285,19.44,6.3510003,-11.680051,0.1703625,-0.71389997,0.8427375,-24.755857,10.21984,9.802969,1.6328559,9.483448,1.8890234,0.0,-6.9012341,109.4055195
1779785238293,10.6390505,6.3510003,1.3600501,-0.0339625,0.554675,-0.08745,17.807144,-3.1324477,-13.569075,1.6328559,9.483448,1.8890234,0.0,-6.9012341,109.4055195
1779785238293,-20.07405,17.22405,8.401051,-0.0339625,0.554675,-0.08745,17.807144,-3.1324477,-13.569075,1.6328559,9.483448,1.8890234,0.0,-6.9012341,109.4055195
1779785238298,4.45905,12.484051,-8.34105,0.37675,-0.3914625,0.511775,-21.73195,7.7467146,6.5031915,1.6766028,9.479236,1.8717678,0.0,-6.9012341,109.4055195
1779785238312,11.161051,11.394001,-7.6080003,-0.01375,0.02035,0.14355,2.7824473,3.004815,-10.212818,1.6640224,9.482694,1.8654602,0.0,-6.9012341,109.4055195
1779785238314,-8.71695,10.935,-0.064050004,0.140525,-0.2424125,0.508475,11.400417,-6.347995,-12.1374035,1.6926334,9.479995,1.8534032,0.0,-6.9012341,109.4055195
1779785238314,13.093051,3.1320002,-10.284,0.140525,-0.2424125,0.508475,11.400417,-6.347995,-12.1374035,1.6926334,9.479995,1.8534032,0.0,-6.9012341,109.4055195
1779785238320,7.9420505,12.943951,-5.20905,0.033,0.19167499,-0.2619375,11.400417,-6.347995,-12.1374035,1.6976594,9.480595,1.8457237,0.0,-6.9012341,109.4055195
1779785238328,-19.93305,13.152,7.3980002,-0.4618625,0.2311375,-0.3449875,6.244391,3.463356,-7.054774,1.670917,9.48222,1.8617058,0.0,-6.9012341,109.4055195
1779785238330,5.6569505,-5.67105,10.377001,-0.63855,-0.4478375,0.5383125,-21.603968,3.6697807,5.5362945,1.718242,9.461524,1.9229157,0.0,-6.9012341,109.4055195
1779785238333,11.27805,-0.453,11.2560005,0.21395,0.127875,-0.0171875,3.9387083,-15.132574,8.454085,1.7431927,9.454654,1.9342215,0.0,-6.9012341,109.4055195
1779785238344,-22.314001,17.42505,6.8569503,0.76945,0.455675,-0.41195,-24.031815,7.959791,4.952118,1.7580141,9.463132,1.8785417,0.0,-6.9012341,109.4055195
1779785238344,-3.1219501,8.7310505,-13.155001,-0.4129125,0.0842875,0.462825,-4.8799644,-0.7320814,-15.033543,1.7580141,9.463132,1.8785417,0.0,-6.9012341,109.4055195
1779785238349,15.438001,3.38595,-0.36600003,-0.4129125,0.0842875,0.462825,-4.8799644,-0.7320814,-15.033543,1.7748797,9.459704,1.8799452,0.0,-6.9012341,109.4055195
1779785238357,-12.36705,12.625951,10.52595,0.1863125,0.2800875,-0.19813749,13.663121,-6.0737543,-2.2459452,1.7624278,9.461127,1.8844974,0.0,-6.9012341,109.4055195
1779785238359,4.5430503,9.222,-8.50605,0.467225,-0.30745,0.69905,-14.129478,3.1648235,8.641453,1.7898692,9.464492,1.8412358,0.0,-6.9012341,109.4055195
1779785238364,23.33505,9.519,-14.88405,0.198,-0.0903375,0.3276625,2.753181,-0.24249172,-10.347286,1.7994782,9.464655,1.8310014,0.0,-6.9012341,109.4055195
1779785238369,-9.562051,18.603,0.73695004,-0.0105875,0.7195375,-0.3993,21.535572,0.05434513,-16.715052,1.7959616,9.465519,1.8299901,0.0,-6.9012341,109.4055195
1779785238378,-8.104051,13.087951,-11.907001,0.1692625,-0.1967625,0.24145,-11.358012,9.137482,-1.0930401,1.7907537,9.468594,1.8191607,0.0,-6.9012341,109.4055195
1779785238381,17.92395,12.376051,-14.764951,-0.0829125,-0.0935,0.4819375,-9.894804,3.619357,-13.726161,1.8109632,9.461784,1.8345103,0.0,-6.9012341,109.4055195
1779785238391,-6.7960505,16.992,0.094950005,-0.367125,0.373725,-0.2767875,16.112988,2.9142666,-16.59946,1.7949369,9.456481,1.877112,0.0,-6.9012341,109.4055195
1779785238398,-2.157,5.979,5.06505,0.095837496,0.6568375,-0.553575,20.048166,-8.772156,8.115795,1.8228858,9.446106,1.9022552,0.0,-6.9012341,109.4055195
1779785238398,21.871052,0.67395,10.01805,0.095837496,0.6568375,-0.553575,20.048166,-8.772156,8.115795,1.8228858,9.446106,1.9022552,0.0,-6.9012341,109.4055195
1779785238401,-12.85095,14.866951,18.36705,0.095837496,0.6568375,-0.553575,20.048166,-8.772156,8.115795,1.7985686,9.450016,1.9059757,0.0,-6.9012341,109.4055195
1779785238412,-17.698051,12.693001,4.62405,0.2990625,-0.1530375,0.11055,-14.649519,5.416935,16.461075,1.8370992,9.444632,1.8958956,0.0,-6.9012341,109.4055195
1779785238412,15.309001,3.9049501,0.25095,0.1021625,0.3449875,-0.2385625,13.471902,-5.5396814,-1.6449456,1.8370992,9.444632,1.8958956,0.0,-6.9012341,109.4055195
1779785238416,-7.2130504,10.651951,9.43395,0.1021625,0.3449875,-0.2385625,-9.03733,1.2062206,7.53117,1.824279,9.44573,1.9027807,0.0,-6.9012341,109.4055195
1779785238424,-11.74005,10.06305,6.162,0.0862125,-0.0221375,0.3339875,-9.03733,1.2062206,7.53117,1.8154116,9.44795,1.9002415,0.0,-6.9012341,109.4055195
1779785238425,17.46405,2.67405,-4.2840004,0.21175,-0.2585,0.5946875,-13.555462,0.6150999,4.261759,1.8585352,9.44204,1.8878906,0.0,-6.9012341,109.4055195
1779785238431,-3.4120502,15.126,4.6200004,0.1777875,0.4184125,-0.207625,15.6055155,-6.76799,-6.171891,1.8482171,9.445152,1.882441,0.0,-6.9012341,109.4055195
1779785238435,-12.54405,13.521001,-7.9290004,0.5374875,0.044825,0.2509375,-5.2602673,5.680848,2.7375593,1.8417802,9.451058,1.8589615,0.0,-6.9012341,109.4055195
1779785238445,21.402,6.1729503,-20.316002,0.0979,-0.3328875,0.723525,-14.38583,4.0699425,-9.787962,1.8804636,9.446423,1.8437306,0.0,-6.9012341,109.4055195
1779785238446,4.39995,11.389951,-6.696,-0.2820125,0.2237125,-0.080025,2.518146,1.9429245,-8.535265,1.8804636,9.446423,1.8437306,0.0,-6.9012341,109.4055195
1779785238452,-14.580001,8.752951,-1.6350001,-0.2820125,0.2237125,-0.080025,2.518146,1.9429245,-8.535265,1.8818039,9.447026,1.8392648,0.0,-6.9012341,109.4055195
1779785238455,13.311001,5.6059504,-5.2830005,-0.169125,-0.331925,0.4882625,-16.4343,-0.69726086,-3.4857993,1.8933733,9.441624,1.8550662,0.0,-6.9012341,109.4055195
1779785238461,-1.1080501,14.671051,-0.43995002,0.042625,0.404525,-0.1907125,11.417627,-3.8356733,-7.138067,1.8830955,9.444488,1.8509512,0.0,-6.9012341,109.4055195
1779785238464,-14.431951,12.714001,-3.6490502,-0.154275,-0.0297,0.07865,-2.9911456,5.2265635,-2.2909012,1.8695829,9.44648,1.8544747,0.0,-6.9012341,109.4055195
1779785238470,18.70305,2.7630002,-1.3909501,-0.564025,-0.3009875,0.6777375,-16.301533,3.267521,-5.503525,1.9109834,9.434426,1.8735353,0.0,-6.9012341,109.4055195
1779785238480,1.26405,9.41895,12.262051,-0.237325,0.3993,-0.2662,16.792067,-6.671426,-3.2644854,1.9100441,9.428422,1.9044688,0.0,-6.9012341,109.4055195
1779785238481,-16.67295,11.88105,8.109,0.0276375,0.1364,-0.0246125,-0.64599407,-0.009471893,10.357582,1.8931338,9.431587,1.9056723,0.0,-6.9012341,109.4055195
1779785238489,12.715051,5.9479504,-0.68895006,-0.0424875,-0.3201,0.5319875,-18.566084,2.449463,6.203328,1.9455383,9.42094,1.9055612,0.0,-6.9012341,109.4055195
1779785238490,-3.07905,14.059951,12.127951,-0.132,0.4162125,-0.1651375,10.769512,-3.47299,-2.5945113,1.9420402,9.419545,1.915999,0.0,-6.9012341,109.4055195
1779785238495,-18.561,13.83705,5.59905,0.30965,0.109725,0.1860375,-5.0210905,4.6404057,10.211951,1.9352812,9.4220495,1.9105104,0.0,-6.9012341,109.4055195
1779785238500,18.609001,7.9069505,-6.1860003,-0.0020625,-0.49995,0.8564875,-20.496283,4.415001,3.6885395,1.9812835,9.414823,1.8989602,0.0,-6.9012341,109.4055195
1779785238512,7.3669505,10.389001,2.7630002,-0.064899996,0.420475,-0.0023375,16.627718,-1.5078721,-8.084961,1.9958051,9.40781,1.9184009,0.0,-6.9012341,109.4055195
1779785238512,-12.361951,10.908001,7.9129505,0.205425,-0.1934625,0.583,-14.357756,1.5001907,5.9945498,1.9958051,9.40781,1.9184009,0.0,-6.9012341,109.4055195
1779785238515,14.277,7.2370505,-2.39895,0.205425,-0.1934625,0.583,-14.357756,1.5001907,5.9945498,1.9958051,9.40781,1.9184009,0.0,-6.9012341,109.4055195
1779785238522,2.2150502,15.643051,-3.7840502,0.31185,0.4076875,-0.1161875,12.23978,-2.1660924,-4.2965775,2.0348353,9.404734,1.8923101,0.0,-6.9012341,109.4055195
1779785238528,-12.73095,13.47105,-8.65695,0.0884125,0.08855,0.0924,0.18021488,6.2383175,-5.67636,2.0332181,9.407055,1.8824873,0.0,-6.9012341,109.4055195
1779785238529,15.498001,6.42,-4.05405,-0.34155,0.1480875,0.2668875,13.464783,-2.9870548,-5.9365373,2.0332181,9.407055,1.8824873,0.0,-6.9012341,109.4055195
1779785238533,1.04205,8.817,5.946,-0.34155,0.1480875,0.2668875,13.464783,-2.9870548,-5.9365373,2.0644953,9.38563,1.9540234,0.0,-6.9012341,109.4055195
1779785238538,-10.021951,5.1480002,1.1730001,-0.154275,0.3322,-0.21615,-1.0224453,-0.56862926,3.9919767,1.9455063,9.411719,1.9506279,0.0,-6.9012341,109.4055195
1779785238543,16.482,4.506,-2.8159502,-0.01485,-0.27445,0.4851,-11.967457,-4.263719,-0.7776278,1.971968,9.406158,1.9508816,0.0,-6.9012341,109.4055195
1779785238550,-6.2530503,12.487051,-0.25095,0.010725,0.242825,0.0616,14.510033,-4.9001584,-4.766832,1.9454257,9.414419,1.9376276,0.0,-6.9012341,109.4055195
1779785238554,-11.397,8.877001,-8.7960005,0.2649625,0.437525,-0.2044625,-8.198476,3.0726318,-2.1885777,1.9332311,9.418589,1.9295617,0.0,-6.9012341,109.4055195
1779785238561,16.791,1.9770001,-8.122951,-0.2809125,-0.2998875,0.624525,-13.330232,-0.5415878,-10.725562,1.9634002,9.411857,1.9319419,0.0,-6.9012341,109.4055195
1779785238563,-7.656,7.3450503,7.9510503,-0.4565,0.13213749,0.0616,14.8276005,-7.4348564,-10.054893,1.9507108,9.408239,1.9621775,0.0,-6.9012341,109.4055195
1779785238569,-12.835951,10.76895,8.121,-0.1287,0.570625,-0.1236125,-9.60671,-2.063189,5.9888725,1.929283,9.408845,1.9803807,0.0,-6.9012341,109.4055195
1779785238573,14.964001,10.587001,-0.94500005,0.047849998,-0.3829375,0.66385,-14.765234,1.3601055,6.1406198,1.9612852,9.402854,1.9773967,0.0,-6.9012341,109.4055195
1779785238579,-3.2730002,13.15005,8.92605,-0.14795,0.24915,0.265925,13.002715,1.1841469,-2.9223967,1.9763298,9.398882,1.9813007,0.0,-6.9012341,109.4055195
1779785238584,-2.1430502,4.44705,10.66695,-0.156475,0.275825,0.1126125,-5.24933,3.7511683,6.9447494,1.9651335,9.387699,2.0444472,0.0,-6.9012341,109.4055195
1779785238600,15.196051,11.31105,3.8749502,-0.18095,-0.1211375,0.649,-4.108184,-4.940649,8.622503,1.99524,9.3907,2.00104,0.0,-6.9012341,109.4055195
1779785238600,-8.7960005,18.32805,-11.565001,-0.18095,-0.1211375,0.649,-4.88019,6.9282503,-15.08209,1.99524,9.3907,2.00104,0.0,-6.9012341,109.4055195
1779785238601,-2.8849502,16.31895,-13.081051,-0.3788125,-0.2787125,0.460625,-4.88019,6.9282503,-15.08209,1.99524,9.3907,2.00104,0.0,-6.9012341,109.4055195
1779785238603,12.33195,17.31495,0.87405,-0.3788125,-0.2787125,0.460625,-4.88019,6.9282503,-15.08209,2.0195115,9.383847,2.0088322,0.0,-6.9012341,109.4055195
1779785238608,-4.02,5.86005,3.17805,-0.4789125,0.4631,0.230725,10.312439,7.9311037,-1.1347822,2.0105467,9.378747,2.041376,0.0,-6.9012341,109.4055195
1779785238614,11.047951,6.4800005,5.15595,-0.351175,-0.0818125,0.30745,-6.0305467,-3.5186968,1.1366739,2.0454621,9.365888,2.0655842,0.0,-6.9012341,109.4055195
1779785238620,7.1130004,11.3230505,11.668051,-0.237325,0.029975,0.247775,9.002489,-2.8858871,3.090366,2.0659676,9.356838,2.0860815,0.0,-6.9012341,109.4055195
1779785238631,-19.887001,12.814951,10.276951,-0.0180125,0.7557,-0.2332,5.047033,1.9662123,9.581969,2.0502863,9.36243,2.0764556,0.0,-6.9012341,109.4055195
1779785238631,3.492,12.73095,-2.6940002,0.270325,0.1694,0.263725,1.4417138,3.3685207,-4.770456,2.0502863,9.36243,2.0764556,0.0,-6.9012341,109.4055195
1779785238634,8.677051,14.833951,-6.8250003,0.1533125,-0.27335,0.5957875,1.4417138,3.3685207,-4.770456,2.0831752,9.358162,2.062907,0.0,-6.9012341,109.4055195
1779785238641,-5.9050503,10.611,-10.887,0.271425,0.6142125,0.1243,6.5938754,5.475789,-8.887907,2.078104,9.363475,2.0438294,0.0,-6.9012341,109.4055195
1779785238644,18.39105,6.3840003,-6.6139503,-0.34045,-0.165825,0.4585625,-7.9831543,1.2475252,-12.93083,2.0987108,9.356945,2.0526557,0.0,-6.9012341,109.4055195
1779785238649,3.4420502,10.144051,3.4459503,-0.4129125,0.1959375,0.2913625,16.29234,-2.9729447,-8.666606,2.1319125,9.342559,2.0837317,0.0,-6.9012341,109.4055195
1779785238655,-15.721951,12.217951,1.197,0.0383625,0.766425,-0.3108875,1.3101377,0.80149174,1.3622186,2.1064708,9.346191,2.0932946,0.0,-6.9012341,109.4055195
1779785238665,10.276951,10.729051,0.67005,-0.1755875,-0.01155,0.3680875,-17.82842,2.8717594,-0.8962946,2.1172316,9.335882,2.1281507,0.0,-6.9012341,109.4055195
1779785238665,-4.8439503,8.872951,7.5990005,-0.1755875,-0.01155,0.3680875,-17.82842,2.8717594,-0.8962946,2.1172316,9.335882,2.1281507,0.0,-6.9012341,109.4055195
1779785238670,-12.1060505,5.5630503,11.77095,-0.24585,0.485375,-0.062975,-6.9611816,-0.46293163,5.47085,2.100762,9.334654,2.1497517,0.0,-6.9012341,109.4055195
1779785238674,11.644051,7.3560004,10.309951,-0.2393875,-0.084975,0.5841,-14.206812,-3.7716036,9.621199,2.1460946,9.320861,2.1647751,0.0,-6.9012341,109.4055195
1779785238680,-5.91195,8.48205,-0.67200005,0.254375,0.2534125,0.20735,9.497956,-1.9648604,8.145176,1.9579557,9.379123,2.0901842,0.0,-6.9012341,109.4055195
1779785238690,-0.52095,12.927001,-5.4739504,0.3969625,0.324775,0.1956625,-7.869906,-0.8970728,-2.7621841,1.9481246,9.388232,2.0582297,0.0,-6.9012341,109.4055195
1779785238690,11.44095,14.815051,-3.3120003,-0.24475,0.322575,0.10835,9.466118,5.430545,-5.3617535,1.9481246,9.388232,2.0582297,0.0,-6.9012341,109.4055195
1779785238699,-5.493,7.1029506,1.269,-0.24475,0.322575,0.10835,9.466118,5.430545,-5.3617535,1.8735427,9.407836,2.0378532,0.0,-6.9012341,109.4055195
1779785238700,9.022051,2.8300502,3.8479502,-0.318175,0.22893749,0.3542,-7.366543,-2.3048854,-0.7688532,2.1236742,9.327563,2.158,0.0,-6.9012341,109.4055195
1779785238705,7.0360503,10.446,-1.4959501,0.023375,0.0374,0.264825,6.8983765,-6.497513,1.6899502,2.1568599,9.320856,2.1540625,0.0,-6.9012341,109.4055195
1779785238710,-13.878,15.076051,-4.2190504,0.4151125,0.58341247,-0.161975,4.8791904,1.125144,-3.6500125,2.1424656,9.327337,2.140331,0.0,-6.9012341,109.4055195
1779785238715,1.84395,16.525051,2.217,0.073425,0.25135,0.280775,-16.020466,5.7487135,-6.3593817,2.1427972,9.328678,2.134145,0.0,-6.9012341,109.4055195
1779785238720,5.571,8.63805,6.2029505,-0.5427125,-0.2105125,0.3658875,-0.2988472,7.196373,0.082854986,2.1876848,9.308909,2.1745431,0.0,-6.9012341,109.4055195
1779785238733,3.8730001,1.17495,10.531051,-0.18933749,0.3779875,0.3521375,3.3833153,-0.67085934,4.028407,2.2841656,9.260783,2.2783453,0.0,-6.9012341,109.4055195
1779785238733,10.488001,7.1700006,5.5009503,-0.18933749,0.3779875,0.3521375,3.3833153,-0.67085934,4.028407,2.2841656,9.260783,2.2783453,0.0,-6.9012341,109.4055195
1779785238738,-5.1010504,15.604951,1.7380501,0.6109125,0.7695875,-0.045925,8.2038355,-2.0907826,3.222605,2.267868,9.269542,2.2589304,0.0,-6.9012341,109.4055195
1779785238742,-11.44005,20.52,-5.95095,0.5225,0.1683,0.10945,-7.3689184,6.335409,-0.52088034,2.2627969,9.27689,2.2337067,0.0,-6.9012341,109.4055195
1779785238747,5.44605,16.678051,-9.438001,-0.21065,-0.1137125,0.43505,-13.702847,11.243111,-8.184657,2.281834,9.272581,2.2322347,0.0,-6.9012341,109.4055195
1779785238754,6.3229504,3.7710001,4.51695,-0.5564625,0.3311,0.3977875,3.1642163,7.40547,-11.670236,2.358354,9.234508,2.3092053,0.0,-6.9012341,109.4055195
1779785238766,2.22,4.95195,14.209051,-0.2382875,0.0479875,0.0935,3.9645963,-5.4635077,2.2077448,2.3786263,9.230301,2.305227,0.0,-6.9012341,109.4055195
1779785238766,7.52505,12.09105,2.088,0.77907497,0.47905,0.1073875,5.146424,2.8607492,-0.21722698,2.3786263,9.230301,2.305227,0.0,-6.9012341,109.4055195
1779785238767,2.5480502,14.163001,-12.882001,0.77907497,0.47905,0.1073875,5.146424,2.8607492,-0.21722698,2.3798265,9.239774,2.2657022,0.0,-6.9012341,109.4055195
1779785238774,0.9990001,16.335001,-11.187,-0.153175,0.104499996,0.045649998,0.16822362,4.9232273,-15.147703,2.3835356,9.233958,2.2854304,0.0,-6.9012341,109.4055195
1779785238777,2.3710501,6.774,1.57605,-0.528825,0.275825,0.20955,-1.3845356,7.1010427,-13.472431,2.385276,9.233487,2.2855146,0.0,-6.9012341,109.4055195
1779785238783,-4.011,0.90000004,10.629001,0.1969,0.0182875,0.1711875,-6.3769407,-8.317373,8.25988,2.3659406,9.217373,2.3691204,0.0,-6.9012341,109.4055195
1779785238788,-1.02405,6.8370004,6.387,0.1969,0.0182875,0.1711875,-6.3769407,-8.317373,8.25988,2.3233013,9.20969,2.4401376,0.0,-6.9012341,109.4055195
1779785238799,1.6000501,9.77295,-2.8230002,-0.1819125,0.110825,0.329725,-3.833258,2.7290115,-7.5784216,2.2842078,9.257039,2.2934716,0.0,-6.9012341,109.4055195
1779785238800,-1.5490501,11.986051,-5.2849503,-0.1819125,0.110825,0.329725,-3.833258,2.7290115,-7.5784216,2.2842078,9.257039,2.2934716,0.0,-6.9012341,109.4055195
1779785238803,4.7779503,7.73505,-1.6999501,-0.1819125,0.110825,0.329725,-3.833258,2.7290115,-7.5784216,2.3354023,9.252608,2.2595448,0.0,-6.9012341,109.4055195
1779785238808,3.1570501,3.7399502,1.9609501,-0.0254375,0.35035,0.165825,2.442548,-1.5175581,-3.959495,2.344723,9.248184,2.2679882,0.0,-6.9012341,109.4055195
1779785238816,-0.279,9.538051,-0.8880001,0.2193125,0.080025,0.0647625,0.81232715,-5.508234,-0.30703807,2.24776,9.295734,2.1696231,0.0,-6.9012341,109.4055195
1779785238819,5.3890505,11.056951,-8.619,0.3832125,0.242825,0.2690875,-2.52676,0.24231625,-3.0576231,2.2588212,9.298714,2.1452339,0.0,-6.9012341,109.4055195
1779785238832,3.4990501,13.782001,-5.8500004,-0.0350625,0.146025,0.083875,3.1302292,1.7582369,-10.764235,2.264101,9.299028,2.1382985,0.0,-6.9012341,109.4055195
1779785238833,3.04905,12.052951,1.056,-0.0350625,0.146025,0.083875,0.78494906,2.7539225,-1.0822985,2.264101,9.299028,2.1382985,0.0,-6.9012341,109.4055195
1779785238836,5.5609503,6.22095,4.99095,-0.186175,0.3012625,0.1467125,0.78494906,2.7539225,-1.0822985,2.4639497,9.209181,2.3000703,0.0,-6.9012341,109.4055195
1779785238838,0.82095003,8.06505,4.5739503,0.1309,0.159775,-0.0715,3.0970006,-2.9882307,2.6908798,2.4429595,9.206425,2.3332584,0.0,-6.9012341,109.4055195
1779785238843,-2.9230502,12.43395,-3.4390502,0.469425,0.3993,0.04455,-1.6220095,-1.1413746,2.240692,2.4219403,9.219067,2.3050854,0.0,-6.9012341,109.4055195
1779785238848,-1.659,15.166951,-12.73095,0.3342625,0.0969375,0.089237496,-5.3449907,3.2148838,-5.744136,2.420583,9.225707,2.2798033,0.0,-6.9012341,109.4055195
1779785238855,3.6430502,10.906051,-11.043,-0.0851125,0.1353,0.2605625,-4.079583,5.941244,-15.010754,2.4287941,9.224936,2.2741888,0.0,-6.9012341,109.4055195
1779785238867,6.1410003,5.8240504,-1.38405,-0.57035,0.1480875,0.1882375,1.214256,1.6811152,-13.317189,2.4952123,9.18275,2.3709548,0.0,-6.9012341,109.4055195
1779785238868,3.1920002,1.8859501,10.866,-0.070125,0.38747498,0.0625625,0.69678783,-7.2967997,8.495046,2.4952123,9.18275,2.3709548,0.0,-6.9012341,109.4055195
1779785238869,1.91805,3.5629501,14.467951,-0.070125,0.38747498,0.0625625,0.69678783,-7.2967997,8.495046,2.4985483,9.174626,2.3987217,0.0,-6.9012341,109.4055195
1779785238873,-2.6890502,8.36205,-0.33705002,0.549175,0.23539999,-0.0704,-0.5804982,-5.611676,12.069229,2.4448917,9.200557,2.3542876,0.0,-6.9012341,109.4055195
1779785238879,-2.6190002,11.088,-3.7380002,0.220275,0.3609375,0.1211375,-5.1339417,-0.8385067,-2.6913376,2.4135642,9.219144,2.3135464,0.0,-6.9012341,109.4055195
1779785238886,-4.61205,10.321951,3.8719501,-0.20955,0.1214125,0.2913625,-6.992257,1.0960913,1.5506313,2.3802073,9.22586,2.3213189,0.0,-6.9012341,109.4055195
1779785238888,-2.9329503,9.703951,14.595,-0.20955,0.1214125,0.2913625,-6.992257,1.0960913,1.5506313,2.3802073,9.22586,2.3213189,0.0,-6.9012341,109.4055195
1779785238894,5.0269504,6.3409505,13.234951,0.01595,0.1012,0.3925625,2.6182399,-2.8694987,10.882048,2.4087105,9.210449,2.352903,0.0,-6.9012341,109.4055195
1779785238898,8.257951,7.22205,2.42295,0.5555,0.2332,0.2233,2.6182399,-2.8694987,10.882048,2.4694881,9.195747,2.347392,0.0,-6.9012341,109.4055195
1779785238903,8.3560505,15.619051,-4.3099504,0.7343875,0.373725,0.2179375,5.7884626,-1.9736972,0.07555795,2.477799,9.201418,2.3162096,0.0,-6.9012341,109.4055195
1779785238916,-0.010950001,22.45005,-18.63495,0.727925,0.31405,-0.1139875,5.8782516,6.417633,-6.6261597,2.4713166,9.210845,2.2854602,0.0,-6.9012341,109.4055195
1779785238917,2.7949502,19.612051,-7.2349505,-0.6001875,0.19167499,0.103125,0.32363367,10.401206,-9.520411,2.4713166,9.210845,2.2854602,0.0,-6.9012341,109.4055195
1779785238922,4.19805,9.462001,8.49495,-0.6001875,0.19167499,0.103125,0.32363367,10.401206,-9.520411,2.4824493,9.196495,2.3307338,0.0,-6.9012341,109.4055195
1779785238930,5.1730504,6.0490503,4.9840503,0.0446875,0.1214125,0.069025,1.7156007,0.2655058,6.1642165,2.5638566,9.15668,2.3983846,0.0,-6.9012341,109.4055195
1779785238930,9.1390505,11.751,-6.4440002,0.0446875,0.1214125,0.069025,6.575194,2.5943203,-8.842384,2.5638566,9.15668,2.3983846,0.0,-6.9012341,109.4055195
1779785238934,-0.80595005,19.11795,-19.28895,0.4874375,0.324775,-0.2704625,6.575194,2.5943203,-8.842384,2.550671,9.172663,2.3508997,0.0,-6.9012341,109.4055195
1779785238939,-2.598,16.99905,-7.3690505,-0.4459125,0.259875,-0.027775,-5.136444,7.8252773,-9.728838,2.5384443,9.173773,2.3597875,0.0,-6.9012341,109.4055195
1779785238948,0.076950006,7.7089505,5.5230002,-0.6012875,0.2374625,0.0061875,-5.136444,7.8252773,-9.728838,2.5384443,9.173773,2.3597875,0.0,-6.9012341,109.4055195
1779785238950,1.30305,5.74905,11.734951,-0.3873375,0.011825,0.04455,-2.4271288,-1.4500394,3.0708754,2.5070083,9.146495,2.4953806,0.0,-6.9012341,109.4055195
1779785238956,4.143,4.1620502,5.20905,0.2096875,0.242825,0.0966625,-1.2039583,-3.3974447,9.239571,2.5218964,9.138569,2.509379,0.0,-6.9012341,109.4055195
1779785238960,7.0990505,9.02595,-4.4089503,0.3554375,0.146025,-0.0235125,1.6211038,-4.9765186,2.6996713,2.5341046,9.144215,2.476296,0.0,-6.9012341,109.4055195
1779785238964,1.7359501,13.15005,-8.884951,0.3235375,0.5248375,-0.0928125,4.564946,-0.1182642,-6.8852463,2.5341046,9.144215,2.476296,0.0,-6.9012341,109.4055195
1779785238981,-4.18995,11.61705,-12.873,-0.0020625,0.2448875,-0.1725625,-0.78600633,3.9966555,-11.339642,2.4564626,9.145112,2.5501242,0.0,-6.9012341,109.4055195
1779785238981,0.74505,6.2449503,0.282,-0.0020625,0.2448875,-0.1725625,-0.78600633,3.9966555,-11.339642,2.4564626,9.145112,2.5501242,0.0,-6.9012341,109.4055195
1779785238981,-2.595,5.7250504,8.373,-0.0020625,0.2448875,-0.1725625,-0.78600633,3.9966555,-11.339642,2.4564626,9.145112,2.5501242,0.0,-6.9012341,109.4055195
1779785238988,3.04395,4.71495,-1.7689501,0.0064625,0.22687499,0.045649998,-5.0514627,-3.4200616,5.822876,2.4762213,9.135083,2.5669034,0.0,-6.9012341,109.4055195
1779785238988,13.635,6.7890005,-3.3049502,0.0064625,0.22687499,0.045649998,-5.0514627,-3.4200616,5.822876,2.4762213,9.135083,2.5669034,0.0,-6.9012341,109.4055195
1779785238992,-3.012,7.22205,-3.111,0.010725,0.50985,-0.2044625,11.158779,-2.3460827,-5.871854,2.4365482,9.152634,2.542233,0.0,-6.9012341,109.4055195
1779785238997,-7.5510006,15.043951,19.62,-0.3617625,0.4321625,-0.2545125,-5.4485483,-1.9305835,-5.653233,2.415205,9.153615,2.5590081,0.0,-6.9012341,109.4055195
1779785239002,-9.061951,11.623951,14.262001,-0.11165,0.3311,-0.1087625,-9.966206,5.890336,17.060993,2.4034057,9.151124,2.5789492,0.0,-6.9012341,109.4055195
1779785239016,3.6019502,4.4419503,19.18395,-0.318175,-0.1584,0.1307625,-11.465357,2.472827,11.683052,2.4034057,9.151124,2.5789492,0.0,-6.9012341,109.4055195
1779785239016,12.130951,4.104,20.769001,0.93334997,0.2789875,-0.0704,9.7047825,-5.0345354,18.166836,2.4034057,9.151124,2.5789492,0.0,-6.9012341,109.4055195
1779785239019,6.3250504,12.898951,-10.542001,0.93334997,0.2789875,-0.0704,9.7047825,-5.0345354,18.166836,2.427452,9.146717,2.5720513,0.0,-6.9012341,109.4055195
1779785239024,3.5059502,25.45305,-17.365952,1.19625,0.2129875,-0.0182875,3.8975983,3.7522335,-13.114052,2.4204025,9.164788,2.5137048,0.0,-6.9012341,109.4055195
1779785239030,-10.420051,22.572,-13.60305,0.4917,0.797225,-0.2800875,1.0855477,16.288261,-19.879656,2.4026015,9.175425,2.4918847,0.0,-6.9012341,109.4055195
1779785239033,1.2090001,14.75895,5.4,-0.63414997,-0.0402875,-0.062975,-12.822652,13.396576,-16.094934,2.3899136,9.173516,2.5110395,0.0,-6.9012341,109.4055195
1779785239037,14.586,5.00505,-6.7770004,-0.268125,0.1247125,0.47547498,-1.1809134,5.585434,2.8889606,2.4149098,9.161417,2.5312154,0.0,-6.9012341,109.4055195
1779785239048,19.29405,9.28905,-20.00505,0.44275,-0.135025,0.00935,12.171091,-4.156367,-9.308216,2.422563,9.16432,2.5133262,0.0,-6.9012341,109.4055195
1779785239049,10.714951,13.05195,-14.295001,0.0363,0.4321625,-0.080025,16.871487,0.12473011,-22.518377,2.418683,9.167199,2.5065603,0.0,-6.9012341,109.4055195
1779785239053,-4.5139503,11.64105,-13.597951,-0.01485,0.4972,-0.6386875,-6.8976173,2.4642506,-16.102922,2.3836672,9.1768,2.5049722,0.0,-6.9012341,109.4055195
1779785239059,-5.2390504,8.049001,7.11,-0.7555625,0.438625,-0.4035625,-6.8976173,2.4642506,-16.102922,2.3238165,9.179407,2.5512223,0.0,-6.9012341,109.4055195
1779785239063,-8.42205,3.2250001,6.4759502,-0.5352875,0.259875,-0.3205125,-7.562867,-1.1304064,4.558778,2.2348611,9.183797,2.6141326,0.0,-6.9012341,109.4055195
1779785239067,1.437,10.42695,16.377,-0.27445,-0.066825,-0.1299375,-10.656912,-5.9587965,3.8618176,2.2239535,9.181534,2.6313229,0.0,-6.9012341,109.4055195
1779785239072,-3.4140003,2.71005,11.87205,-0.121275,0.2693625,-0.0438625,-0.78695345,1.2454166,13.745678,2.215778,9.171372,2.6733203,0.0,-6.9012341,109.4055195
1779785239081,-1.4479501,-1.0510501,27.336,-0.48633748,-0.00935,-0.2545125,-5.6297784,-6.4613223,9.19873,2.2023396,9.170584,2.687098,0.0,-6.9012341,109.4055195
1779785239082,-8.614051,6.4609504,32.155052,-0.219175,0.488675,-0.093775,-3.6502898,-10.221634,24.648903,2.1942508,9.165234,2.7118554,0.0,-6.9012341,109.4055195
1779785239090,-10.67895,17.11395,-4.5210004,1.3079,0.1896125,-0.274725,-10.808302,-2.7042832,29.443197,2.174391,9.182666,2.6685376,0.0,-6.9012341,109.4055195
1779785239093,12.319951,18.45705,-18.91995,0.0363,0.0969375,0.214775,10.135439,9.256602,-21.51804,2.1845117,9.200448,2.5980887,0.0,-6.9012341,109.4055195
1779785239098,10.686001,5.8639503,-8.443951,0.0363,0.0969375,0.214775,10.135439,9.256602,-21.51804,2.2105932,9.201852,2.5709174,0.0,-6.9012341,109.4055195
1779785239103,2.661,2.526,18.202051,-0.7118375,0.22893749,-0.1342,8.475408,-3.3379016,-11.014868,2.206806,9.193408,2.604162,0.0,-6.9012341,109.4055195
1779785239115,1.2430501,12.336,4.8019505,0.093637496,0.2545125,-0.1555125,0.45419407,-6.667408,15.597889,2.1821504,9.211789,2.5596004,0.0,-6.9012341,109.4055195
1779785239115,5.96295,19.815,-25.2,0.093637496,0.2545125,-0.1555125,0.45419407,-6.667408,15.597889,2.1821504,9.211789,2.5596004,0.0,-6.9012341,109.4055195
1779785239120,5.56605,16.965,-21.219002,0.5141125,0.1959375,-0.027775,3.7807999,10.603211,-27.759602,2.1798124,9.223232,2.5200808,0.0,-6.9012341,109.4055195
1779785239130,5.63805,7.29195,5.34495,-0.645975,-0.001925,-0.29067498,3.3862376,7.741768,-23.739082,2.20976,9.18084,2.645666,0.0,-6.9012341,109.4055195
1779785239131,2.028,2.8560002,12.162001,0.63965,-0.1040875,-0.47795,-0.18175983,-6.3248396,9.516335,2.20976,9.18084,2.645666,0.0,-6.9012341,109.4055195
1779785239134,3.2430003,8.2570505,-11.43795,0.63965,-0.1040875,-0.47795,-0.18175983,-6.3248396,9.516335,2.1998737,9.195992,2.600908,0.0,-6.9012341,109.4055195
1779785239139,7.37895,14.701951,-6.6499505,0.420475,0.011825,-0.100237496,1.0431266,-0.93894196,-14.038858,2.2008018,9.196968,2.5966585,0.0,-6.9012341,109.4055195
1779785239145,-5.02395,8.439,-10.365001,-0.55233747,-0.1584,-0.2875125,-7.190107,-0.77394676,-12.934006,2.1661568,9.212947,2.5690048,0.0,-6.9012341,109.4055195
1779785239150,5.2860003,6.60195,10.387051,-0.55233747,-0.1584,-0.2875125,-7.190107,-0.77394676,-12.934006,2.1504607,9.2012005,2.6237054,0.0,-6.9012341,109.4055195
1779785239155,-3.1699502,2.8489501,4.296,-0.1967625,0.243925,-0.243925,3.1355395,-2.5992503,7.7633452,2.147382,9.201281,2.6259465,0.0,-6.9012341,109.4055195
1779785239168,-4.368,10.156051,0.32505003,0.337425,-0.0625625,-0.4844125,-5.3173323,-6.35233,1.6700535,2.025426,9.25886,2.518246,0.0,-6.9012341,109.4055195
1779785239168,0.23505001,11.857051,-6.2839503,0.0149875,0.2204125,-0.047025,-0.8204758,2.9191914,-11.987296,2.025426,9.25886,2.518246,0.0,-6.9012341,109.4055195
1779785239168,1.2049501,12.178051,-9.46905,0.0149875,0.2204125,-0.047025,-0.8204758,2.9191914,-11.987296,2.025426,9.25886,2.518246,0.0,-6.9012341,109.4055195
1779785239175,4.0669503,12.0720005,-4.76805,0.0149875,0.2204125,-0.047025,-0.8204758,2.9191914,-11.987296,2.0201948,9.264429,2.501912,0.0,-6.9012341,109.4055195
1779785239179,7.767,11.998051,0.162,-0.1819125,-0.362725,-0.2789875,2.0467556,2.8075714,-7.2699623,2.0198615,9.263873,2.5042386,0.0,-6.9012341,109.4055195
1779785239184,5.00505,8.916,6.49695,-0.27981248,0.1714625,-0.0683375,5.747139,2.7341776,-2.3422387,2.0310595,9.253276,2.5341842,0.0,-6.9012341,109.4055195
1779785239188,2.5099502,8.394,0.93105006,0.0383625,0.0086624995,-0.5077875,2.9739907,-0.3372755,3.962766,2.0161765,9.258053,2.52862,0.0,-6.9012341,109.4055195
1779785239201,4.4880004,12.376051,5.89905,-0.1819125,-0.0061875,-0.1714625,0.4937737,-0.8640528,-1.59757,1.9816316,9.269201,2.515041,0.0,-6.9012341,109.4055195
1779785239201,-8.559,15.868051,-12.922951,-0.1819125,-0.0061875,-0.1714625,2.4811046,3.1180449,3.3628905,1.9816316,9.269201,2.515041,0.0,-6.9012341,109.4055195
1779785239204,1.99995,17.44395,-6.0490503,0.108625,-0.3680875,-0.34925,-10.540631,6.5988493,-15.437992,1.9606675,9.279242,2.4943647,0.0,-6.9012341,109.4055195
1779785239209,-0.564,8.22795,3.9750001,-0.4459125,0.1725625,-0.0809875,0.03928256,8.164709,-8.543415,1.9288136,9.277512,2.5254414,0.0,-6.9012341,109.4055195
1779785239214,1.57605,5.73705,14.149051,-0.5490375,-0.3606625,-0.404525,-2.4928136,-1.0495615,1.4495587,1.9173146,9.270316,2.5603783,0.0,-6.9012341,109.4055195
1779785239222,8.059051,7.071,11.92695,-0.25959998,-9.625E-4,-0.014025,-0.3412646,-3.533266,11.588673,1.921908,9.262109,2.5865006,0.0,-6.9012341,109.4055195
1779785239234,1.4460001,13.29405,1.7530501,0.5577,-0.2179375,-0.4662625,6.1371427,-2.1911087,9.34045,1.8751943,9.279851,2.5570314,0.0,-6.9012341,109.4055195
1779785239234,-4.5880504,11.44005,7.7500505,0.3416875,-0.0551375,-0.4162125,-6.4632444,2.1601992,5.193019,1.8751943,9.279851,2.5570314,0.0,-6.9012341,109.4055195
1779785239235,-1.9939501,9.847051,11.44305,-0.1309,-0.3276625,-0.4588375,-6.4632444,2.1601992,5.193019,1.8527582,9.281394,2.5677626,0.0,-6.9012341,109.4055195
1779785239240,-3.5080502,4.767,2.5099502,0.205425,0.2971375,-0.0906125,-3.8467083,0.56565666,8.875288,1.838719,9.284659,2.5660481,0.0,-6.9012341,109.4055195
1779785239244,-1.0699501,11.406,-9.594001,0.5269,-0.344575,-0.4301,-5.3467693,-4.517659,-0.056097984,1.8167567,9.299886,2.5262418,0.0,-6.9012341,109.4055195
1779785239250,4.26105,10.032001,-1.59,0.2299,-0.001925,0.014712499,-2.8867068,2.1061144,-12.120243,1.827723,9.310621,2.478336,0.0,-6.9012341,109.4055195
1779785239256,-3.0340502,8.580001,-0.07095,-0.0968,0.0235125,-0.240625,2.4333272,0.7213793,-4.068336,1.7540569,9.33452,2.4413924,0.0,-6.9012341,109.4055195
1779785239265,11.070001,10.033951,15.354001,-0.348975,-0.30525,-0.1023,-4.788107,-0.75451946,-2.5123425,1.757556,9.329384,2.45845,0.0,-6.9012341,109.4055195
1779785239266,4.38,4.6410003,2.1070502,0.1458875,-0.31913748,-0.600325,2.6224442,-4.6883836,-0.3513999,1.757556,9.329384,2.45845,0.0,-6.9012341,109.4055195
1779785239271,-1.5490501,12.396001,8.911051,0.1458875,-0.31913748,-0.600325,2.6224442,-4.6883836,-0.3513999,1.7315656,9.337073,2.4476848,0.0,-6.9012341,109.4055195
1779785239275,-5.4859505,12.994051,8.80395,0.173525,0.32999998,-0.2300375,-3.2806158,3.0589275,6.463366,1.7098453,9.340542,2.449716,0.0,-6.9012341,109.4055195
1779785239281,-6.6379504,18.069,-8.75805,0.797225,-0.053075,-0.340725,-7.195796,3.6535091,6.354234,1.6914409,9.3525915,2.4162915,0.0,-6.9012341,109.4055195
1779785239285,6.18405,17.499,-14.42895,0.5152125,-0.1445125,0.0616,-8.3293915,8.716409,-11.174341,1.6902198,9.360923,2.3846781,0.0,-6.9012341,109.4055195
1779785239291,14.038951,14.412001,-8.563951,0.2374625,-0.33825,0.1552375,4.49383,8.138078,-16.81363,1.7018762,9.3634615,2.366348,0.0,-6.9012341,109.4055195
1779785239301,8.125951,8.68605,-4.01805,-0.21175,0.21615,-0.076725,12.337074,5.048539,-10.930299,1.7215427,9.361446,2.360089,0.0,-6.9012341,109.4055195
1779785239303,11.403001,10.807951,3.2260501,-0.1989625,-0.429825,-0.390775,6.404408,-0.67539597,-6.3781395,1.7155014,9.360274,2.3691187,0.0,-6.9012341,109.4055195
1779785239309,-3.3979502,6.0319505,0.60795003,0.0798875,0.4972,-0.3216125,9.687499,1.4476767,0.85693145,1.689906,9.365041,2.3686798,0.0,-6.9012341,109.4055195
1779785239310,-11.668051,9.486,1.67595,0.0650375,-0.013612499,-0.880275,-5.0878563,-3.3330903,-1.7607298,1.6356717,9.376937,2.3596659,0.0,-6.9012341,109.4055195
1779785239316,-5.5750504,7.8949504,15.1050005,-0.3383875,0.0182875,-0.177925,-13.303722,0.10906315,-0.6837158,1.6162186,9.376218,2.3758752,0.0,-6.9012341,109.4055195
1779785239323,-11.656051,3.25605,-1.422,0.35021248,0.11825,-0.256575,-7.191269,-1.4812675,12.729125,1.5495672,9.394239,2.3489423,0.0,-6.9012341,109.4055195
1779785239336,3.3390002,3.6990001,13.74495,-0.2883375,-0.4808375,-0.0650375,-13.205618,-6.1381893,-3.7709422,1.5543809,9.388392,2.3690474,0.0,-6.9012341,109.4055195
1779785239336,-2.2480502,6.49695,17.02605,0.3832125,-0.0636625,-0.2066625,-3.802431,-2.8914423,14.657003,1.5543809,9.388392,2.3690474,0.0,-6.9012341,109.4055195
1779785239337,-4.15695,14.941951,2.13105,0.77165,-0.1478125,0.020075,-3.802431,-2.8914423,14.657003,1.544325,9.3988085,2.3340666,0.0,-6.9012341,109.4055195
1779785239343,17.95095,14.224951,-10.602,0.5588,-0.4329875,0.3755125,-5.701275,5.5431423,-0.20301652,1.56578,9.403973,2.298702,0.0,-6.9012341,109.4055195
1779785239349,17.539051,9.16005,-14.247001,0.3001625,0.2343,-0.064075,16.38517,4.820978,-12.900702,1.5699865,9.407897,2.2796955,0.0,-6.9012341,109.4055195
1779785239353,3.9589503,10.486951,-18.53895,0.3108875,0.2151875,-0.5311625,2.41286,1.0718489,-20.805193,1.5460905,9.415102,2.2662423,0.0,-6.9012341,109.4055195
1779785239358,2.8279502,21.13305,-14.523001,0.2608375,0.2523125,-0.3108875,2.41286,1.0718489,-20.805193,1.5261167,9.42226,2.2499733,0.0,-6.9012341,109.4055195
1779785239362,-13.536,19.732052,-25.669052,0.3427875,0.3535125,-0.570625,1.3018335,11.710791,-16.772974,1.4971399,9.430681,2.2341034,0.0,-6.9012341,109.4055195
1779785239368,-3.8620503,17.04,-9.205951,-1.0630125,-0.3691875,0.0562375,-15.03314,10.301371,-27.903156,1.4903022,9.425701,2.2595448,0.0,-6.9012341,109.4055195
1779785239373,11.350051,1.28805,7.0789504,-0.8034125,-0.017875,0.22013749,-5.3523526,7.6143,-11.465496,1.5354087,9.402354,2.325652,0.0,-6.9012341,109.4055195
1779785239389,6.0760503,-1.06305,8.434951,-0.5638875,-0.2616625,-0.38115,9.814642,-8.114305,4.7532988,1.5354087,9.402354,2.325652,0.0,-6.9012341,109.4055195
1779785239389,0.46695003,5.3490005,17.37795,0.0372625,-0.054175,-0.339625,-9.780485,-2.1675868,14.149636,1.5354087,9.402354,2.325652,0.0,-6.9012341,109.4055195
1779785239390,-8.161051,7.1700006,16.671001,0.0372625,-0.054175,-0.339625,-9.780485,-2.1675868,14.149636,1.5354087,9.402354,2.325652,0.0,-6.9012341,109.4055195
1779785239396,-12.59895,6.2689505,16.057951,0.0372625,-0.054175,-0.339625,-9.780485,-2.1675868,14.149636,1.5984558,9.340429,2.5242257,0.0,-6.9012341,109.4055195
1779785239402,-0.651,4.734,13.069051,0.3235375,-0.0955625,-0.11825,-2.2565165,-4.6028395,10.536045,1.6055166,9.33684,2.5330057,0.0,-6.9012341,109.4055195
1779785239403,-3.00195,1.9150501,3.5389502,0.3235375,-0.0955625,-0.11825,-2.2565165,-4.6028395,10.536045,1.6031867,9.3417,2.5165148,0.0,-6.9012341,109.4055195
1779785239408,-1.09095,8.3220005,6.7780504,0.19373749,-0.1276,0.0488125,-4.605137,-7.4266496,1.0224354,1.5933496,9.342778,2.5187528,0.0,-6.9012341,109.4055195
1779785239417,3.8940003,12.147,3.2260501,0.810975,0.371525,0.2435125,2.2956553,2.8053179,0.70639086,1.5933496,9.342778,2.5187528,0.0,-6.9012341,109.4055195
1779785239423,3.2280002,16.945951,-23.976002,0.876975,-0.4851,-0.0672375,1.630085,7.591367,-26.447601,1.5979152,9.354585,2.4716,0.0,-6.9012341,109.4055195
1779785239425,16.899,17.451,-12.352951,-0.0977625,0.2343,0.3733125,1.630085,7.591367,-26.447601,1.6127042,9.353179,2.4673073,0.0,-6.9012341,109.4055195
