timestamp,ax,ay,az,magnitude,gx,gy,gz,lat,lon,alt,speed,accuracy,bearing
1776328623441,6.5860505,2.5470002,8.49495,10.3014145,0.0716375,-0.0518375,0.3014,-6.8762457,109.4858998,30.5,4.6099014,1.972,262.99866
1776328623442,1.8750001,10.57995,-0.07395,10.656336,0.3100625,-0.1689875,0.1651375,-6.8762457,109.4858998,30.5,4.6099014,1.972,262.99866
1776328623453,6.7390504,11.3869505,-12.646951,16.774168,0.3100625,-0.1689875,0.1651375,-6.8762457,109.4858998,30.5,4.6099014,1.972,262.99866
1776328623454,2.0070002,6.078,-7.76205,11.403468,-0.258225,0.2068,-0.1838375,-6.8762457,109.4858998,30.5,4.6099014,1.972,262.99866
1776328803712,-4.30095,9.318001,13.888051,13.814804,,,,-6.8765089,109.4851407,30.5,12.423529,3.032,249.75674
1776328803712,2.16,10.70205,0.58905005,11.509945,,,,-6.8765089,109.4851407,30.5,12.423529,3.032,249.75674
1776328803759,-6.6139503,7.21995,13.73505,15.796251,0.2322375,-0.201025,0.148775,-6.8765089,109.4851407,30.5,12.423529,3.032,249.75674
1776328803768,-1.0819501,7.143,8.19495,11.899055,-0.0922625,0.2182125,-0.113025,-6.8765089,109.4851407,30.5,12.423529,3.032,249.75674
1776328803774,1.57605,14.58495,1.7050501,14.194701,0.22055,-0.0287375,0.147675,-6.8765089,109.4851407,30.5,12.423529,3.032,249.75674
1776328803787,2.46195,9.92205,7.5700502,13.0154295,0.4291375,0.0947375,0.198825,-6.8765089,109.4851407,30.5,12.423529,3.032,249.75674
1776328803799,3.8509502,11.75895,-7.5049505,14.180361,0.05775,0.11385,0.17435,-6.8765089,109.4851407,30.5,12.423529,3.032,249.75674
1776328803807,6.3349504,12.76395,-15.391951,19.616293,0.260975,0.042625,0.050875,-6.8765089,109.4851407,30.5,12.423529,3.032,249.75674
1776328803819,4.2990003,4.899,5.4960003,10.743821,0.260975,0.042625,0.050875,-6.8765089,109.4851407,30.5,12.423529,3.032,249.75674
1776328803825,-3.3310502,5.65395,14.097001,14.588404,-0.4552625,0.1054625,-0.082225,-6.8765089,109.4851407,30.5,12.423529,3.032,249.75674
1776328803829,3.69495,9.4810505,-10.750951,14.760003,-0.0380875,0.040425,-0.3003,-6.8765089,109.4851407,30.5,12.423529,3.032,249.75674
1776328803840,0.76095,13.5720005,-11.946,17.429241,0.2088625,-0.055275,-0.229075,-6.8765089,109.4851407,30.5,12.423529,3.032,249.75674
1776328803851,1.2409501,7.3729506,9.309,13.037655,0.2088625,-0.055275,-0.229075,-6.8765089,109.4851407,30.5,12.423529,3.032,249.75674
1776328803861,-0.79905003,7.9099503,7.29195,11.237835,-0.507375,-0.0521125,-0.177925,-6.8765089,109.4851407,30.5,12.423529,3.032,249.75674
1776328803872,-6.5329504,13.786951,0.10305001,14.453011,0.058849998,-0.0372625,-0.2055625,-6.8765089,109.4851407,30.5,12.423529,3.032,249.75674
1776328803913,-5.7330003,10.345051,17.94795,20.086254,-1.2896125,0.2501125,-0.635525,-6.8765089,109.4851407,30.5,12.423529,3.032,249.75674
1776328803920,-9.8230505,4.8780003,28.872002,28.725204,0.8281625,-0.1073875,-0.1577125,-6.8765089,109.4851407,30.5,12.423529,3.032,249.75674
1776328804056,-1.2900001,7.87095,-2.29395,12.38447,-0.47753748,-0.368225,0.5850625,-6.8765089,109.4851407,30.5,12.423529,3.032,249.75674
1776328804056,-5.37795,6.0679502,14.326951,15.646651,-0.47753748,-0.368225,0.5850625,-6.8765089,109.4851407,30.5,12.423529,3.032,249.75674
1776328804059,7.6039505,1.4770501,3.048,9.788678,-0.0444125,0.3012625,-0.22687499,-6.8765089,109.4851407,30.5,12.423529,3.032,249.75674
1776328804059,0.56505,8.53695,-11.613001,13.49718,-0.0444125,0.3012625,-0.22687499,-6.8765089,109.4851407,30.5,12.423529,3.032,249.75674
1776328804059,-7.9870505,14.992051,1.0180501,16.313335,-0.0444125,0.3012625,-0.22687499,-6.8765089,109.4851407,30.5,12.423529,3.032,249.75674
1776328804059,9.63,5.2489505,8.62605,14.425381,-0.0444125,0.3012625,-0.22687499,-6.8765089,109.4851407,30.5,12.423529,3.032,249.75674
1776328804059,4.63395,14.797951,-10.22595,17.74491,-0.0444125,0.3012625,-0.22687499,-6.8765089,109.4851407,30.5,12.423529,3.032,249.75674
1776328804059,-13.026001,12.40995,6.2050505,18.773935,-0.0444125,0.3012625,-0.22687499,-6.8765089,109.4851407,30.5,12.423529,3.032,249.75674
1776328804059,2.7160501,4.15005,9.41205,12.265921,-0.0444125,0.3012625,-0.22687499,-6.8765089,109.4851407,30.5,12.423529,3.032,249.75674
1776328804059,2.469,2.94705,3.2329502,6.4717836,-0.0444125,0.3012625,-0.22687499,-6.8765089,109.4851407,30.5,12.423529,3.032,249.75674
1776328804059,-9.02805,9.021001,1.4250001,11.567888,-0.0444125,0.3012625,-0.22687499,-6.8765089,109.4851407,30.5,12.423529,3.032,249.75674
1776328804059,9.196951,6.2910004,-5.11005,12.120456,-0.0444125,0.3012625,-0.22687499,-6.8765089,109.4851407,30.5,12.423529,3.032,249.75674
1776328804059,4.8190503,6.228,9.108001,12.056269,-0.0444125,0.3012625,-0.22687499,-6.8765089,109.4851407,30.5,12.423529,3.032,249.75674
1776328804062,-1.6129501,10.72395,2.84505,11.3805,-0.0444125,0.3012625,-0.22687499,-6.8765089,109.4851407,30.5,12.423529,3.032,249.75674
1776328804076,-1.5700501,5.649,8.689051,10.661836,-0.0710875,0.22453749,-0.0023375,-6.8765089,109.4851407,30.5,12.423529,3.032,249.75674
1776328804084,-0.98805004,0.30600002,16.97805,15.73999,0.1513875,0.24475,0.081675,-6.8765089,109.4851407,30.5,12.423529,3.032,249.75674
1776328804091,-4.35795,5.76105,6.576,10.962864,0.1183875,0.2734875,0.10835,-6.8765089,109.4851407,30.5,12.423529,3.032,249.75674
1776328804102,-3.6850502,7.9189506,2.8660502,9.546641,0.6419875,-0.1947,0.4191,-6.8765089,109.4851407,30.5,12.423529,3.032,249.75674
1776328804111,10.876051,10.20405,-15.98595,19.399197,0.2897125,0.2734875,0.120037496,-6.8765089,109.4851407,30.5,12.423529,3.032,249.75674
1776328804122,3.2310002,16.09095,-12.918,20.588789,0.058849998,-0.104225,0.1243,-6.8765089,109.4851407,30.5,12.423529,3.032,249.75674
1776328804138,9.769051,15.564001,-16.60395,23.930702,-0.46695,-0.2979625,-0.02475,-6.8765089,109.4851407,30.5,12.423529,3.032,249.75674
1776328804142,14.902051,10.306951,-15.259951,23.73737,-1.2863125,0.27885,-0.603625,-6.8765089,109.4851407,30.5,12.423529,3.032,249.75674
1776328804153,-5.223,1.7070001,14.616001,17.23929,-0.574475,-0.1340625,-0.77605,-6.8765089,109.4851407,30.5,12.423529,3.032,249.75674
1776328804162,-17.04195,2.4109502,23.362951,26.662588,-0.194425,-0.3862375,-0.2226125,-6.8765089,109.4851407,30.5,12.423529,3.032,249.75674
1776328804172,-11.91195,-0.537,32.325,32.89584,-0.1508375,0.157575,-0.0012375,-6.8765089,109.4851407,30.5,12.423529,3.032,249.75674
1776328804182,1.67595,1.9390501,15.189001,18.902142,1.308175,0.417175,-0.066275,-6.8765089,109.4851407,30.5,12.423529,3.032,249.75674
1776328804193,1.5690001,21.30705,-15.559951,24.92472,0.423775,-0.334125,0.7244875,-6.8765089,109.4851407,30.5,12.423529,3.032,249.75674
1776328804204,15.654,15.68595,-16.386002,27.033585,-0.10505,0.4970625,0.1243,-6.8765089,109.4851407,30.5,12.423529,3.032,249.75674
1776328804212,10.717951,13.869,-6.6769505,20.411896,-0.6488625,0.1351625,-0.1406625,-6.8765089,109.4851407,30.5,12.423529,3.032,249.75674
1776328804227,-5.0890503,16.656,3.8389502,18.349731,-0.2327875,0.1692625,-0.3364625,-6.8765089,109.4851407,30.5,12.423529,3.032,249.75674
1776328804240,0.78495,4.70295,14.815051,16.12067,-0.309375,-0.057475,-0.569525,-6.8765089,109.4851407,30.5,12.423529,3.032,249.75674
1776328804246,-10.85805,4.67205,26.64195,26.54134,0.2908125,-0.757625,-0.3078625,-6.8765089,109.4851407,30.5,12.423529,3.032,249.75674
1776328804256,-10.08495,6.49905,12.276001,19.040428,0.377025,-0.12979999,0.2083125,-6.8765089,109.4851407,30.5,12.423529,3.032,249.75674
1776328804266,2.4379501,4.70505,-1.84395,8.296739,0.0790625,0.0319,0.5105375,-6.8765089,109.4851407,30.5,12.423529,3.032,249.75674
1776328804276,-1.88205,7.0189505,9.92205,11.498205,-0.0933625,0.4054875,0.2987875,-6.8765089,109.4851407,30.5,12.423529,3.032,249.75674
1776328804287,-4.8630004,11.112,11.27505,15.548088,0.80905,0.1299375,0.5053125,-6.8765089,109.4851407,30.5,12.423529,3.032,249.75674
1776328804295,7.0750504,20.104952,-13.608001,23.339388,0.6813125,-0.087175,0.3562625,-6.8765089,109.4851407,30.5,12.423529,3.032,249.75674
1776328804307,18.849,17.209951,-16.51305,28.98772,-0.3540625,0.452375,-0.3727625,-6.8765089,109.4851407,30.5,12.423529,3.032,249.75674
1776328804316,4.33005,15.385051,1.5850501,18.646488,-0.377575,-0.6182,-0.2695,-6.8765089,109.4851407,30.5,12.423529,3.032,249.75674
1776328804326,1.2409501,8.278951,-4.6410003,11.386759,-0.001925,-0.005225,-0.6015625,-6.8765089,109.4851407,30.5,12.423529,3.032,249.75674
1776328804338,-6.58995,8.0460005,0.024,10.597588,-0.88935,-0.1403875,-0.279125,-6.8765089,109.4851407,30.5,12.423529,3.032,249.75674
1776328804346,-10.200001,0.49995002,30.807001,28.08394,0.230175,-0.4533375,0.0264,-6.8765089,109.4851407,30.5,12.423529,3.032,249.75674
1776328804356,4.1839504,3.52005,5.14905,11.6252575,1.1336875,0.12773749,-0.3876125,-6.8765089,109.4851407,30.5,12.423529,3.032,249.75674
1776328804367,-7.9240503,21.08505,-6.7960505,21.147272,-0.2891625,-0.1926375,-2.75E-4,-6.8765089,109.4851407,30.5,12.423529,3.032,249.75674
1776328804377,2.6920502,10.077001,7.9939504,14.742573,0.2344375,0.0394625,0.490325,-6.8765089,109.4851407,30.5,12.423529,3.032,249.75674
1776328804387,11.19705,16.306952,-7.3620005,19.833815,0.5984,-0.0680625,0.410575,-6.8765089,109.4851407,30.5,12.423529,3.032,249.75674
1776328804397,4.44,15.472951,-6.729,17.924534,-1.1149875,0.70345,-0.41525,-6.8765089,109.4851407,30.5,12.423529,3.032,249.75674
1776328804407,-8.779051,6.9970503,24.66105,25.261778,-0.0358875,-0.3894,0.37015,-6.8765089,109.4851407,30.5,12.423529,3.032,249.75674
1776328804416,2.6869502,7.55805,11.72805,16.419424,0.5930375,0.125675,-0.0182875,-6.8765089,109.4851407,30.5,12.423529,3.032,249.75674
1776328804428,0.45000002,9.543,2.3730001,11.159009,0.02585,-0.5267625,-0.0279125,-6.8765089,109.4851407,30.5,12.423529,3.032,249.75674
1776328804437,-5.67495,13.573951,5.1469502,14.7012415,0.4015,-0.659725,0.30305,-6.8765089,109.4851407,30.5,12.423529,3.032,249.75674
1776328804447,14.586,6.8299503,-13.276951,19.638552,0.2578125,0.3832125,-0.0853875,-6.8765089,109.4851407,30.5,12.423529,3.032,249.75674
1776328804458,-4.4160004,12.337951,-3.6130502,14.802422,-0.1986875,0.289575,-0.193875,-6.8765089,109.4851407,30.5,12.423529,3.032,249.75674
1776328804467,-12.360001,9.382951,18.76905,22.443178,0.073699996,-0.3278,0.3881625,-6.8765089,109.4851407,30.5,12.423529,3.032,249.75674
1776328804477,10.96905,1.9650002,-0.64605004,13.418537,0.2322375,-0.3224375,-0.031075,-6.8765089,109.4851407,30.5,12.423529,3.032,249.75674
1776328804487,-2.2069502,13.729951,-7.31895,15.255402,0.050325,0.188375,-0.2737625,-6.8765089,109.4851407,30.5,12.423529,3.032,249.75674
1776328804497,-2.42505,10.50405,3.3049502,12.071543,-0.164725,-0.057475,0.3647875,-6.8765089,109.4851407,30.5,12.423529,3.032,249.75674
1776328804507,10.212001,7.524,-3.58695,12.959806,0.5962,-0.384175,-0.1280125,-6.8765089,109.4851407,30.5,12.423529,3.032,249.75674
1776328804518,2.13105,14.352,-13.90995,18.671923,-0.59565,0.58753747,-0.5025625,-6.8765089,109.4851407,30.5,12.423529,3.032,249.75674
1776328804527,-10.39605,9.118951,17.293951,21.44881,-0.6776,-0.83435,0.410575,-6.8765089,109.4851407,30.5,12.423529,3.032,249.75674
1776328804540,4.76805,3.6679502,11.39805,14.60026,0.5941375,-0.1511125,-0.1651375,-6.8765089,109.4851407,30.5,12.423529,3.032,249.75674
1776328804547,3.4080002,13.921051,-15.586051,19.859192,-0.0103124995,0.4703875,-0.163075,-6.8765089,109.4851407,30.5,12.423529,3.032,249.75674
1776328804558,-8.988001,11.0140505,11.97,18.83924,-1.339525,-0.3702875,0.2924625,-6.8765089,109.4851407,30.5,12.423529,3.032,249.75674
1776328804568,4.84695,-2.9580002,26.596052,25.52421,1.045275,-0.0435875,-0.09075,-6.8765089,109.4851407,30.5,12.423529,3.032,249.75674
1776328804578,-2.334,16.84095,-8.97795,20.48626,0.48125,0.0149875,-0.031075,-6.8765089,109.4851407,30.5,12.423529,3.032,249.75674
1776328804588,-6.9640503,12.337951,3.1750503,15.712523,-0.8394375,-0.219175,0.5594875,-6.8765089,109.4851407,30.5,12.423529,3.032,249.75674
1776328804598,13.062,2.43,11.580001,17.241972,0.439725,-0.21285,0.377575,-6.8765089,109.4851407,30.5,12.423529,3.032,249.75674
1776328804609,4.02105,15.07995,-5.5219502,16.692339,0.3163875,0.78223747,-0.4673625,-6.8765089,109.4851407,30.5,12.423529,3.032,249.75674
1776328804621,-13.675051,15.62205,-0.078,19.948086,-0.0763125,-0.1084875,0.49568748,-6.8765089,109.4851407,30.5,12.423529,3.032,249.75674
1776328804628,9.1369505,1.6800001,9.501,14.620148,-0.0763125,-0.1084875,0.49568748,-6.8765089,109.4851407,30.5,12.423529,3.032,249.75674
1776328804636,3.039,10.83405,4.2120004,12.535792,0.1354375,0.6417125,-0.4057625,-6.8765089,109.4851407,30.5,12.423529,3.032,249.75674
1776328804646,-15.121051,13.441951,9.735001,20.46894,0.3993,-0.2553375,0.2541,-6.8765089,109.4851407,30.5,12.423529,3.032,249.75674
1776328804656,11.118001,7.4550004,-8.113951,16.616362,0.2151875,-0.1489125,0.2349875,-6.8765089,109.4851407,30.5,12.423529,3.032,249.75674
1776328804667,7.7530503,8.7619505,-0.63900006,12.696934,-0.055,-0.1904375,0.1115125,-6.8765089,109.4851407,30.5,12.423529,3.032,249.75674
1776328804676,-5.27295,11.739,-0.49800003,12.842198,0.3876125,0.661925,-0.2695,-6.8765089,109.4851407,30.5,12.423529,3.032,249.75674
1776328804687,1.9230001,12.168,-1.48395,12.494898,-0.063525,0.369325,0.0369875,-6.8765089,109.4851407,30.5,12.423529,3.032,249.75674
1776328804696,6.9210005,3.9769502,13.219951,14.853308,-0.4393125,-0.1511125,-0.12045,-6.8765089,109.4851407,30.5,12.423529,3.032,249.75674
1776328804707,-4.5349503,13.891951,5.5579505,15.478397,0.6408875,0.32999998,-0.36313748,-6.8765089,109.4851407,30.5,12.423529,3.032,249.75674
1776328804716,-0.83505005,14.565001,-7.0720506,16.065811,0.312125,-0.2542375,0.2849,-6.8765089,109.4851407,30.5,12.423529,3.032,249.75674
1776328804726,7.4700003,7.6849504,-1.3980001,11.859596,0.292875,0.3661625,-0.3290375,-6.8765089,109.4851407,30.5,12.423529,3.032,249.75674
1776328804739,-1.6350001,11.32005,2.80395,11.792881,0.0023375,-0.24585,-0.02365,-6.8765089,109.4851407,30.5,12.423529,3.032,249.75674
1776328804747,0.642,10.627951,-2.9599502,11.199457,-0.195525,-0.005225,-0.02255,-6.8765089,109.4851407,30.5,12.423529,3.032,249.75674
1776328804757,-0.87795,7.89795,6.5839505,10.495676,0.02365,0.2501125,-0.2376,-6.8765089,109.4851407,30.5,12.423529,3.032,249.75674
1776328804767,-3.49095,9.04695,12.70995,14.888554,0.4706625,-0.43835,0.1764125,-6.8765089,109.4851407,30.5,12.423529,3.032,249.75674
1776328804778,4.81605,11.99295,-3.38595,13.665718,-0.048675,0.2288,-0.0438625,-6.8765089,109.4851407,30.5,12.423529,3.032,249.75674
1776328804787,-2.3370001,9.225,7.6759505,12.514184,0.2971375,-0.0094875,-0.014025,-6.8765089,109.4851407,30.5,12.423529,3.032,249.75674
1776328804797,-0.018000001,10.633051,-0.75900006,11.030934,0.3397625,0.2905375,-0.2567125,-6.8765089,109.4851407,30.5,12.423529,3.032,249.75674
1776328804808,0.14400001,9.86205,2.74005,10.3954935,0.097075,-0.2968625,-0.02585,-6.8765089,109.4851407,30.5,12.423529,3.032,249.75674
1776328804817,4.7400002,6.6600003,-1.32105,8.703581,-0.0295625,0.3309625,0.1434125,-6.8765089,109.4851407,30.5,12.423529,3.032,249.75674
1776328804830,-0.82095003,11.377951,-0.73695004,10.885763,-0.2146375,0.3257375,0.0455125,-6.8765089,109.4851407,30.5,12.423529,3.032,249.75674
1776328804848,-5.20095,11.875951,13.33005,17.053246,0.69519997,0.2171125,-0.2014375,-6.8765089,109.4851407,30.5,12.423529,3.032,249.75674
1776328804852,0.35700002,5.89095,13.036051,14.85846,0.801625,-0.105325,0.1456125,-6.8765089,109.4851407,30.5,12.423529,3.032,249.75674
1776328804861,-1.31595,16.768951,-8.35305,17.996002,0.1013375,-0.6491375,0.3147375,-6.8765089,109.4851407,30.5,12.423529,3.032,249.75674
1776328804870,3.3070502,6.95205,1.485,9.871569,0.509025,0.042625,0.211475,-6.8765089,109.4851407,30.5,12.423529,3.032,249.75674
1776328804881,0.98205006,6.52995,10.545,11.92786,0.048125,-0.2712875,0.13805,-6.8765089,109.4851407,30.5,12.423529,3.032,249.75674
1776328804892,-1.98195,6.39795,4.6200004,8.894953,-0.048675,0.320375,0.0125124995,-6.8765089,109.4851407,30.5,12.423529,3.032,249.75674
1776328804903,-3.76395,9.880951,0.033,10.237893,0.38555,-0.2160125,0.4712125,-6.8765089,109.4851407,30.5,12.423529,3.032,249.75674
1776328804911,6.8620505,9.76305,1.1520001,11.638641,0.148225,0.08195,0.2008875,-6.8765089,109.4851407,30.5,12.423529,3.032,249.75674
1776328804928,10.243051,6.4440002,-4.5930004,12.6827345,-0.46695,-0.6172375,0.17105,-6.8765089,109.4851407,30.5,12.423529,3.032,249.75674
1776328804931,-9.26805,17.21895,-3.1219501,18.378479,-0.46695,-0.6172375,0.17105,-6.8765089,109.4851407,30.5,12.423529,3.032,249.75674
1776328804941,4.6990504,2.157,5.4580503,9.690294,-0.5808,-0.0521125,-0.015125,-6.8765089,109.4851407,30.5,12.423529,3.032,249.75674
1776328804951,-0.351,3.6829503,13.58205,13.199587,0.18865,-0.1436875,-0.0427625,-6.8765089,109.4851407,30.5,12.423529,3.032,249.75674
1776328804964,-5.8000503,14.7619505,-2.0020502,15.429012,0.5207125,0.01595,-0.2407625,-6.8765089,109.4851407,30.5,12.423529,3.032,249.75674
1776328804975,5.0560503,8.17095,-2.1430502,10.961668,-0.13805,0.024475,0.2275625,-6.8765089,109.4851407,30.5,12.423529,3.032,249.75674
1776328804986,8.121,10.18305,-4.9950004,13.352123,0.6727875,0.093637496,-0.1918125,-6.8765089,109.4851407,30.5,12.423529,3.032,249.75674
1776328804996,5.0800505,16.55295,-18.048,22.679022,-0.9405,0.2288,-0.2237125,-6.8765089,109.4851407,30.5,12.423529,3.032,249.75674
1776328805001,-3.8170502,5.8380003,14.434051,17.360628,-0.0891,0.0033,-0.2046,-6.8765089,109.4851407,30.5,12.423529,3.032,249.75674
1776328805012,-3.6990001,0.79395,24.141,23.020645,0.15345,0.1948375,-0.28435,-6.8765089,109.4851407,30.5,12.423529,3.032,249.75674
1776328805028,-8.437051,10.20195,12.1039505,18.954472,0.1078,-0.253275,0.261525,-6.8765089,109.4851407,30.5,12.423529,3.032,249.75674
1776328805032,-1.24695,9.085951,7.2829504,13.159805,0.1183875,-0.054175,0.1923625,-6.8765089,109.4851407,30.5,12.423529,3.032,249.75674
1776328805044,7.9350004,5.19105,3.89895,10.833933,0.61861247,0.288475,0.0529375,-6.8765089,109.4851407,30.5,12.423529,3.032,249.75674
1776328805052,1.3750501,17.859001,-9.141001,18.254398,0.5121875,0.171325,0.0933625,-6.8765089,109.4851407,30.5,12.423529,3.032,249.75674
1776328805066,3.5010002,13.354051,-7.7400002,16.312513,-0.9766625,0.0053625,0.17215,-6.8765089,109.4851407,30.5,12.423529,3.032,249.75674
1776328805077,5.2330503,4.98495,9.108001,12.564209,0.4109875,-0.2277,-0.0396,-6.8765089,109.4851407,30.5,12.423529,3.032,249.75674
1776328805083,-0.92595005,11.172001,2.5459502,11.709462,-0.146575,0.44275,-0.38225,-6.8765089,109.4851407,30.5,12.423529,3.032,249.75674
1776328805092,-5.247,11.611951,5.3500504,13.397864,0.016224999,-0.7129375,0.091299996,-6.8765089,109.4851407,30.5,12.423529,3.032,249.75674
1776328805103,1.9590001,5.21295,7.2420006,9.9880495,-0.161425,0.4054875,-0.291775,-6.8765089,109.4851407,30.5,12.423529,3.032,249.75674
1776328805112,-3.4459503,7.8520503,9.70695,12.359205,0.74415,-0.0851125,0.099825,-6.8765089,109.4851407,30.5,12.423529,3.032,249.75674
1776328805123,-1.12695,12.73995,-5.886,13.735129,0.2407625,-0.073425,0.1775125,-6.8765089,109.4851407,30.5,12.423529,3.032,249.75674
1776328805139,9.016951,7.8640504,-11.44005,15.989948,-0.34347498,-0.045649998,-0.029975,-6.8765089,109.4851407,30.5,12.423529,3.032,249.75674
1776328805141,-1.91805,9.957001,10.552051,14.905534,-0.4115375,0.6183375,-0.213125,-6.8765089,109.4851407,30.5,12.423529,3.032,249.75674
1776328805151,-0.90195006,10.960951,6.5119505,13.206141,0.161975,-0.1947,0.0199375,-6.8765089,109.4851407,30.5,12.423529,3.032,249.75674
1776328805161,3.4300501,11.719951,-4.1119504,12.949459,0.230175,-0.1084875,0.228525,-6.8765089,109.4851407,30.5,12.423529,3.032,249.75674
1776328805171,2.3089502,11.44005,-1.21605,11.977024,0.0471625,0.5885,-0.35035,-6.8765089,109.4851407,30.5,12.423529,3.032,249.75674
1776328805181,-1.7260501,9.01395,8.257951,12.272223,-0.34347498,-0.55439997,0.1923625,-6.8765089,109.4851407,30.5,12.423529,3.032,249.75674
1776328805194,4.6650004,10.21605,-9.541051,14.243567,0.328075,0.0776875,-0.0768625,-6.8765089,109.4851407,30.5,12.423529,3.032,249.75674
1776328805201,-6.9469504,8.47305,12.568951,16.18813,-1.3013,0.1607375,-0.0864875,-6.8765089,109.4851407,30.5,12.423529,3.032,249.75674
1776328805211,-1.3570501,2.88,20.154001,19.560759,0.8782125,-0.7513,0.311575,-6.8765089,109.4851407,30.5,12.423529,3.032,249.75674
1776328805229,7.6500006,15.219001,-20.130001,25.007856,0.2695,0.1117875,-0.3375625,-6.8765089,109.4851407,30.5,12.423529,3.032,249.75674
1776328805232,-9.844951,14.671051,4.8829503,19.665943,-0.52648747,-0.186175,0.116875,-6.8765089,109.4851407,30.5,12.423529,3.032,249.75674
1776328805249,10.48995,6.43905,2.3730001,13.961359,-0.423225,0.3342625,-0.078925,-6.8765089,109.4851407,30.5,12.423529,3.032,249.75674
1776328805251,2.256,10.008,2.5890002,11.256882,-0.423225,0.3342625,-0.078925,-6.8765089,109.4851407,30.5,12.423529,3.032,249.75674
1776328805261,-14.178,7.18905,14.794051,19.623762,0.2600125,0.1766875,0.04235,-6.8765089,109.4851407,30.5,12.423529,3.032,249.75674
1776328805275,4.9669504,7.5150003,-4.227,11.885189,-0.064625,-0.2171125,0.4934875,-6.8765089,109.4851407,30.5,12.423529,3.032,249.75674
1776328805282,4.704,5.88105,9.38595,12.004014,0.081125,0.18205,-0.0917125,-6.8765089,109.4851407,30.5,12.423529,3.032,249.75674
1776328805294,0.03795,12.405001,-2.33505,12.499133,0.15675,-0.17765,-0.2077625,-6.8765089,109.4851407,30.5,12.423529,3.032,249.75674
1776328805301,-2.9590502,14.314051,2.0689502,14.309751,-0.4530625,-0.1287,0.21573749,-6.8765089,109.4851407,30.5,12.423529,3.032,249.75674
1776328805311,2.1670501,5.0809503,11.32995,12.945757,0.25575,0.565125,0.1881,-6.8765089,109.4851407,30.5,12.423529,3.032,249.75674
1776328805331,3.2599502,14.30895,-12.979951,18.262875,0.6078875,-0.17655,0.195525,-6.8765089,109.4851407,30.5,12.423529,3.032,249.75674
1776328805332,1.3960501,10.18305,0.94095004,11.909601,-0.7447,-0.17765,0.129525,-6.8765089,109.4851407,30.5,12.423529,3.032,249.75674
1776328805343,1.4460001,-0.072000004,19.392,17.938698,0.18975,-0.12979999,-0.0385,-6.8765089,109.4851407,30.5,12.423529,3.032,249.75674
1776328805352,-5.01405,15.50205,-4.524,17.115093,0.4983,-0.2171125,-0.066275,-6.8765089,109.4851407,30.5,12.423529,3.032,249.75674
1776328805362,-0.13995,9.71805,-0.25800002,11.201004,-0.0242,0.1670625,0.296725,-6.8765089,109.4851407,30.5,12.423529,3.032,249.75674
1776328805373,8.719951,5.96295,4.2510004,11.349855,0.6633,-0.301125,0.098725,-6.8765089,109.4851407,30.5,12.423529,3.032,249.75674
1776328805383,2.83995,13.962001,-4.39395,14.19801,-0.014575,0.694925,-0.276925,-6.8765089,109.4851407,30.5,12.423529,3.032,249.75674
1776328805393,-10.960951,7.6129503,14.08005,18.359339,-0.375375,-0.219175,-0.0748,-6.8765089,109.4851407,30.5,12.423529,3.032,249.75674
1776328805404,-1.28295,7.9620004,10.281,14.125219,0.460075,0.0224125,0.0625625,-6.8765089,109.4851407,30.5,12.423529,3.032,249.75674
1776328805416,7.8480005,8.488951,-1.1389501,12.118504,-0.088,0.08415,0.280775,-6.8765089,109.4851407,30.5,12.423529,3.032,249.75674
1776328805428,-5.0290504,13.300951,4.50495,14.35688,0.3950375,0.0457875,0.0444125,-6.8765089,109.4851407,30.5,12.423529,3.032,249.75674
1776328805432,9.304951,11.76105,-13.83495,19.194323,0.0438625,-0.089375,0.30621248,-6.8765089,109.4851407,30.5,12.423529,3.032,249.75674
1776328805448,8.14995,9.340051,-7.9099503,15.602552,-0.4477,0.0851125,-0.410025,-6.8765089,109.4851407,30.5,12.423529,3.032,249.75674
1776328805453,-7.7490005,7.0909505,9.02595,14.199757,-0.4477,0.0851125,-0.410025,-6.8765089,109.4851407,30.5,12.423529,3.032,249.75674
1776328805463,-0.80895007,7.6750503,-2.05005,9.228115,0.1098625,-0.6895625,0.296725,-6.8765089,109.4851407,30.5,12.423529,3.032,249.75674
1776328805481,3.3460503,6.063,6.67005,9.537514,-0.6798,0.5258,-0.3482875,-6.8765089,109.4851407,30.5,12.423529,3.032,249.75674
1776328805483,-6.1639504,8.0460005,15.222001,16.5377,0.1588125,-0.24585,0.081675,-6.8765089,109.4851407,30.5,12.423529,3.032,249.75674
1776328805494,0.38295,12.184951,-1.38405,13.122965,0.48235,0.0809875,0.280775,-6.8765089,109.4851407,30.5,12.423529,3.032,249.75674
1776328805505,5.86005,12.439051,-7.45305,15.13681,-0.1934625,0.6364875,-0.02255,-6.8765089,109.4851407,30.5,12.423529,3.032,249.75674
1776328805514,-4.77495,11.833051,11.793,16.927488,-0.407275,-0.0669625,-0.15345,-6.8765089,109.4851407,30.5,12.423529,3.032,249.75674
1776328805527,1.8079501,9.346951,8.607,13.652794,0.2162875,0.0468875,0.120037496,-6.8765089,109.4851407,30.5,12.423529,3.032,249.75674
1776328805533,3.0030003,11.554951,-1.1560501,12.326269,0.1269125,-0.43408749,0.1838375,-6.8765089,109.4851407,30.5,12.423529,3.032,249.75674
1776328805544,-1.6210501,11.109,3.9150002,11.977013,-0.2253625,0.1628,-0.31625,-6.8765089,109.4851407,30.5,12.423529,3.032,249.75674
1776328805553,1.08,8.583,8.28195,11.976216,-0.030524999,-0.2905375,0.277475,-6.8765089,109.4851407,30.5,12.423529,3.032,249.75674
1776328805565,2.52705,9.580951,0.99600005,10.36208,0.1280125,0.16499999,-0.1364,-6.8765089,109.4851407,30.5,12.423529,3.032,249.75674
1776328805575,-7.2109504,11.6320505,8.878051,15.123017,-0.2965875,0.1362625,0.07535,-6.8765089,109.4851407,30.5,12.423529,3.032,249.75674
1776328805584,3.21405,2.65995,14.18805,14.855579,0.491975,-0.095699996,0.4637875,-6.8765089,109.4851407,30.5,12.423529,3.032,249.75674
1776328805594,6.67995,9.883051,-9.429001,15.135391,0.7313625,0.1447875,-0.342925,-6.8765089,109.4851407,30.5,12.423529,3.032,249.75674
1776328805606,-7.0909505,16.089,-6.9640503,18.156082,-0.360525,-0.3235375,0.3542,-6.8765089,109.4851407,30.5,12.423529,3.032,249.75674
1776328805614,9.781051,4.79895,0.55005,12.358238,-0.1753125,-0.1436875,0.2072125,-6.8765089,109.4851407,30.5,12.423529,3.032,249.75674
1776328805628,4.6920004,9.328051,0.53400004,10.835859,0.0056375,-0.1596375,-0.1406625,-6.8765089,109.4851407,30.5,12.423529,3.032,249.75674
1776328805638,-7.8499503,12.634951,-7.1530504,15.371532,0.18755,-0.2319625,-0.0342375,-6.8765089,109.4851407,30.5,12.423529,3.032,249.75674
1776328805650,5.20695,7.9549503,-14.596951,17.010494,-0.768075,0.3661625,-0.080025,-6.8765089,109.4851407,30.5,12.423529,3.032,249.75674
1776328805657,4.998,4.48005,9.766951,12.882831,-0.2242625,0.1692625,-0.2376,-6.8765089,109.4851407,30.5,12.423529,3.032,249.75674
1776328805667,-3.084,7.66095,8.61495,12.123707,0.5377625,0.5215375,-0.3779875,-6.8765089,109.4851407,30.5,12.423529,3.032,249.75674
1776328805681,-4.8630004,15.418051,-7.623,16.723837,-0.900075,0.0479875,-2.75E-4,-6.8765089,109.4851407,30.5,12.423529,3.032,249.75674
1776328805687,4.57695,4.84905,13.407001,15.323668,-0.1263625,0.3927,0.122099996,-6.8765089,109.4851407,30.5,12.423529,3.032,249.75674
1776328805698,4.0669503,11.58405,0.23400001,12.888299,0.131175,-0.005225,-0.0066,-6.8765089,109.4851407,30.5,12.423529,3.032,249.75674
1776328805711,-3.89595,15.38895,-4.60995,15.801877,-0.59785,-0.169125,0.0561,-6.8765089,109.4851407,30.5,12.423529,3.032,249.75674
1776328805717,5.0010004,2.4469502,6.74595,10.157765,-0.654225,0.0969375,-0.13859999,-6.8765089,109.4851407,30.5,12.423529,3.032,249.75674
1776328805728,-5.2660503,6.0660005,22.465052,21.117987,0.6653625,-0.21807499,-0.2652375,-6.8765089,109.4851407,30.5,12.423529,3.032,249.75674
1776328805741,-1.98705,13.597951,-4.5040503,15.792912,-0.17325,0.141625,-0.0088,-6.8765089,109.4851407,30.5,12.423529,3.032,249.75674
1776328805748,-1.0890001,7.8930006,10.51095,13.710259,-0.259325,-0.220275,0.295625,-6.8765089,109.4851407,30.5,12.423529,3.032,249.75674
1776328805761,3.9880502,5.946,11.7949505,13.780322,0.4525125,0.2979625,-0.1172875,-6.8765089,109.4851407,30.5,12.423529,3.032,249.75674
1776328805768,-1.4599501,12.508051,0.62700003,12.8429165,0.3408625,0.3955875,0.00935,-6.8765089,109.4851407,30.5,12.423529,3.032,249.75674
1776328805779,-6.195,9.71595,10.02795,14.788895,-0.163625,0.0125124995,0.26785,-6.8765089,109.4851407,30.5,12.423529,3.032,249.75674
1776328805788,6.57705,2.41995,6.8920503,10.821177,0.8229375,-0.16733749,-0.081125,-6.8765089,109.4851407,30.5,12.423529,3.032,249.75674
1776328805800,-0.11895001,17.37195,-7.1290503,17.186825,-0.1656875,0.0444125,-0.05775,-6.8765089,109.4851407,30.5,12.423529,3.032,249.75674
1776328805811,1.1659501,10.186951,-0.31305,11.643953,0.280225,-0.32587498,0.262625,-6.8765089,109.4851407,30.5,12.423529,3.032,249.75674
1776328805818,9.23505,10.276051,-8.97105,15.507273,-0.1093125,0.295625,-0.130075,-6.8765089,109.4851407,30.5,12.423529,3.032,249.75674
1776328805829,-5.3569503,9.40905,8.571,14.148675,-0.6670125,0.194425,-0.3312375,-6.8765089,109.4851407,30.5,12.423529,3.032,249.75674
1776328805836,1.248,8.887051,-11.529,14.517815,0.460075,-0.5685625,0.277475,-6.8765089,109.4851407,30.5,12.423529,3.032,249.75674
1776328805854,3.18,4.209,-1.45095,7.2804728,-0.3796375,-0.114125,-0.133375,-6.8765089,109.4851407,30.5,12.423529,3.032,249.75674
1776328805858,-3.831,6.1129503,13.524,13.718383,0.0056375,-0.4684625,0.0592625,-6.8765089,109.4851407,30.5,12.423529,3.032,249.75674
1776328805867,-1.1340001,10.771951,4.7389503,12.201914,-0.0028875,-0.243925,0.0210375,-6.8765089,109.4851407,30.5,12.423529,3.032,249.75674
1776328805884,0.83295006,11.62005,1.45605,11.8327875,-0.0028875,0.0380875,-0.1291125,-6.8765089,109.4851407,30.5,12.423529,3.032,249.75674
1776328805887,-2.6580002,15.423,4.98105,15.505684,0.0620125,-0.131175,0.091299996,-6.8765089,109.4851407,30.5,12.423529,3.032,249.75674
1776328805897,6.12405,14.41695,-8.533051,17.370892,0.410025,0.253,0.1997875,-6.8765089,109.4851407,30.5,12.423529,3.032,249.75674
1776328805907,7.005,9.427951,-11.365951,16.54974,-0.4679125,0.001925,0.2424125,-6.8765089,109.4851407,30.5,12.423529,3.032,249.75674
1776328805917,-3.8430002,8.23095,8.655001,13.347518,-0.2561625,0.5212625,-0.35365,-6.8765089,109.4851407,30.5,12.423529,3.032,249.75674
1776328805930,-0.25095,7.4280005,9.229951,12.149763,-0.4019125,-0.3535125,0.2168375,-6.8765089,109.4851407,30.5,12.423529,3.032,249.75674
1776328805937,0.012,6.1369505,8.257951,10.660863,0.377025,-0.017324999,-0.2035,-6.8765089,109.4851407,30.5,12.423529,3.032,249.75674
1776328805947,-2.63805,13.83705,-2.4090002,13.564801,0.0716375,-0.0364375,-0.20253749,-6.8765089,109.4851407,30.5,12.423529,3.032,249.75674
1776328805962,-0.924,7.6270504,12.6,14.5190115,-0.228525,-0.505725,0.2061125,-6.8765089,109.4851407,30.5,12.423529,3.032,249.75674
1776328805968,5.71005,6.0660005,-2.6910002,9.907459,0.48565,0.049775,-0.179025,-6.8765089,109.4851407,30.5,12.423529,3.032,249.75674
1776328805978,-3.66105,11.337001,-7.2829504,13.152089,0.019524999,0.2487375,0.0188375,-6.8765089,109.4851407,30.5,12.423529,3.032,249.75674
1776328805987,2.39295,6.69495,-1.9009501,8.518015,-0.2635875,0.2583625,0.0603625,-6.8765089,109.4851407,30.5,12.423529,3.032,249.75674
1776328805998,3.8200502,8.535001,1.1659501,9.242238,-0.117837496,0.032725,0.15619999,-6.8765089,109.4851407,30.5,12.423529,3.032,249.75674
1776328806009,-0.01305,13.282051,-2.7270002,12.69574,-0.0933625,-0.0523875,-0.2355375,-6.8765089,109.4851407,30.5,12.423529,3.032,249.75674
1776328806018,2.89995,11.16705,-8.772,14.133925,-0.5786,-0.2429625,-0.0045375,-6.8765089,109.4851407,30.5,12.423529,3.032,249.75674
1776328806031,0.70395005,7.04295,2.6250002,8.866087,-0.4466,-0.2024,-0.002475,-6.8765089,109.4851407,30.5,12.423529,3.032,249.75674
1776328806053,0.91995007,2.0350502,4.87305,6.061572,-0.33275,0.4934875,-0.3801875,-6.8765089,109.4851407,30.5,12.423529,3.032,249.75674
1776328806053,-11.00205,5.814,19.371,19.631147,-0.5902875,-0.4376625,0.2732125,-6.8765089,109.4851407,30.5,12.423529,3.032,249.75674
1776328806062,0.96495,-0.321,17.73195,18.135101,0.247225,-0.2259125,0.0455125,-6.8765089,109.4851407,30.5,12.423529,3.032,249.75674
1776328806071,-0.63105005,10.401,0.795,11.987349,0.0779625,0.015675,0.00605,-6.8765089,109.4851407,30.5,12.423529,3.032,249.75674
1776328806082,-2.2380002,16.884,-1.6879501,16.089565,-0.086899996,-0.6334625,0.439175,-6.8765089,109.4851407,30.5,12.423529,3.032,249.75674
1776328806091,16.97295,9.00405,-14.578051,22.512238,-0.3232625,0.2998875,-0.017324999,-6.8765089,109.4851407,30.5,12.423529,3.032,249.75674
1776328806101,-0.70305,9.01095,6.5550003,13.43453,-0.4126375,0.07205,-0.3493875,-6.8765089,109.4851407,30.5,12.423529,3.032,249.75674
1776328806113,-6.22905,4.794,8.93295,12.205935,-0.1412125,0.2594625,-0.034375,-6.8765089,109.4851407,30.5,12.423529,3.032,249.75674
1776328806121,-2.14995,4.09695,10.79205,11.834824,-0.291225,-0.260975,0.243375,-6.8765089,109.4851407,30.5,12.423529,3.032,249.75674
1776328806138,-2.32005,2.6550002,19.311,18.07116,0.22385,0.1573,0.1529,-6.8765089,109.4851407,30.5,12.423529,3.032,249.75674
1776328806139,-1.17495,8.7310505,4.071,11.3781395,0.22385,0.1573,0.1529,-6.8765089,109.4851407,30.5,12.423529,3.032,249.75674
1776328806149,2.6460001,16.795052,-12.427051,19.123304,0.2652375,-0.2099625,0.087037496,-6.8765089,109.4851407,30.5,12.423529,3.032,249.75674
1776328806165,8.20005,7.24905,-5.0820003,13.478388,-0.16995,0.097625,0.1434125,-6.8765089,109.4851407,30.5,12.423529,3.032,249.75674
1776328806169,-0.95205003,14.271001,-1.0170001,14.166745,0.362175,0.3201,-0.0864875,-6.8765089,109.4851407,30.5,12.423529,3.032,249.75674
1776328806181,5.0820003,7.4809504,-1.8559501,10.219212,-0.4104375,0.0264,-0.002475,-6.8765089,109.4851407,30.5,12.423529,3.032,249.75674
1776328806189,-3.9049501,5.9100003,14.215951,14.750251,0.3366,0.2541,-0.32381248,-6.8765089,109.4851407,30.5,12.423529,3.032,249.75674
1776328806201,-2.8560002,12.024,5.20905,13.679226,0.4695625,0.00935,0.20405,-6.8765089,109.4851407,30.5,12.423529,3.032,249.75674
1776328806215,9.192,8.86305,-9.649051,15.539613,-0.0911625,-0.686675,0.07095,-6.8765089,109.4851407,30.5,12.423529,3.032,249.75674
1776328806220,1.3630501,12.508051,-6.1909504,14.326111,-0.179575,0.121,-0.2376,-6.8765089,109.4851407,30.5,12.423529,3.032,249.75674
1776328806231,-2.9329503,7.8829503,6.77505,11.505385,-0.56374997,-0.214225,0.120037496,-6.8765089,109.4851407,30.5,12.423529,3.032,249.75674
1776328806240,-0.025050001,9.253051,3.4360502,10.197447,0.5526125,-0.1940125,-0.1727,-6.8765089,109.4851407,30.5,12.423529,3.032,249.75674
1776328806253,0.32295,8.89605,4.68405,10.086723,-0.2008875,0.3700125,-0.049225,-6.8765089,109.4851407,30.5,12.423529,3.032,249.75674
1776328806259,-4.8829503,9.814051,13.026001,15.636989,0.4888125,-0.4664,0.079475,-6.8765089,109.4851407,30.5,12.423529,3.032,249.75674
1776328806271,7.4050503,13.806001,-16.47495,21.31512,0.5005,0.1040875,-0.0534875,-6.8765089,109.4851407,30.5,12.423529,3.032,249.75674
1776328806285,7.3770003,13.312951,-16.057951,21.96297,-0.6243875,0.07315,0.2072125,-6.8765089,109.4851407,30.5,12.423529,3.032,249.75674
1776328806290,-5.1870003,8.49705,18.453001,21.166252,-0.9405,0.49568748,-0.2259125,-6.8765089,109.4851407,30.5,12.423529,3.032,249.75674
1776328806300,-4.0420504,7.7899504,16.92,19.481762,0.8548375,-0.1907125,-0.1343375,-6.8765089,109.4851407,30.5,12.423529,3.032,249.75674
1776328806312,2.6920502,15.859051,-14.39595,21.16598,0.1194875,-0.15455,0.080575,-6.8765089,109.4851407,30.5,12.423529,3.032,249.75674
1776328806320,0.711,10.753051,7.3830004,14.683607,-0.636075,0.2211,-0.0748,-6.8765089,109.4851407,30.5,12.423529,3.032,249.75674
1776328806332,5.0989504,9.8539505,2.874,12.105697,0.28875,-0.4994,0.0699875,-6.8765089,109.4851407,30.5,12.423529,3.032,249.75674
1776328806343,2.12205,14.785951,-9.10995,16.418137,-0.0251625,0.4499,-0.49307498,-6.8765089,109.4851407,30.5,12.423529,3.032,249.75674
1776328806351,-6.5179505,8.532001,13.61295,17.153679,-1.1937749,-0.358875,0.1827375,-6.8765089,109.4851407,30.5,12.423529,3.032,249.75674
1776328806363,-0.37500003,3.3259501,20.070002,19.708477,0.6527125,-0.0779625,-0.0312125,-6.8765089,109.4851407,30.5,12.423529,3.032,249.75674
1776328806370,1.62405,14.467051,-10.32705,18.220766,-0.0433125,0.1667875,-0.0418,-6.8765089,109.4851407,30.5,12.423529,3.032,249.75674
1776328806382,-5.9820004,7.8499503,12.05595,16.108553,-0.3392125,0.2179375,0.1082125,-6.8765089,109.4851407,30.5,12.423529,3.032,249.75674
1776328806391,6.9930005,3.6870003,10.65495,13.835634,0.3812875,0.2487375,0.1232,-6.8765089,109.4851407,30.5,12.423529,3.032,249.75674
1776328806401,-0.14295001,9.0070505,3.1630502,10.405024,0.23333749,-0.058849998,0.013612499,-6.8765089,109.4851407,30.5,12.423529,3.032,249.75674
1776328806413,-9.627001,14.191951,5.8650002,16.580412,0.1951125,0.1593625,0.014575,-6.8765089,109.4851407,30.5,12.423529,3.032,249.75674
1776328806429,9.585,9.15795,-0.14805001,13.92211,0.131175,-0.443025,0.56581247,-6.8765089,109.4851407,30.5,12.423529,3.032,249.75674
1776328806431,8.433001,12.955951,-6.5929503,16.229162,0.4037,0.0540375,-0.2748625,-6.8765089,109.4851407,30.5,12.423529,3.032,249.75674
1776328806442,-4.557,14.407051,-5.6400003,16.148891,-0.1315875,-0.0757625,-0.1865875,-6.8765089,109.4851407,30.5,12.423529,3.032,249.75674
1776328806452,2.637,7.7970004,-0.0019500001,9.814463,-0.10615,0.0572,0.1678875,-6.8765089,109.4851407,30.5,12.423529,3.032,249.75674
1776328806464,3.86295,-0.10095,5.175,7.129753,-0.471075,-0.0842875,0.080575,-6.8765089,109.4851407,30.5,12.423529,3.032,249.75674
1776328806472,-7.7809505,11.188951,-2.6430001,12.5318775,0.279125,-0.262075,0.0540375,-6.8765089,109.4851407,30.5,12.423529,3.032,249.75674
1776328806487,5.87505,4.4149504,1.6860001,8.538322,0.084425,0.279675,-0.058849998,-6.8765089,109.4851407,30.5,12.423529,3.032,249.75674
1776328806491,1.8370501,6.7309504,10.377001,11.711267,0.084425,0.279675,-0.058849998,-6.8765089,109.4851407,30.5,12.423529,3.032,249.75674
1776328806502,-9.238951,13.287001,7.8190503,16.720907,0.32065,0.2019875,0.13695,-6.8765089,109.4851407,30.5,12.423529,3.032,249.75674
1776328806518,4.00395,11.566951,-2.4139502,13.325064,-0.065725,-0.2248125,0.2635875,-6.8765089,109.4851407,30.5,12.423529,3.032,249.75674
1776328806522,6.6169505,9.724951,2.12205,12.226997,-0.1890625,-0.05555,0.14973749,-6.8765089,109.4851407,30.5,12.423529,3.032,249.75674
1776328806532,0.13395001,11.446951,2.49,11.817724,0.524975,0.56485,-0.3419625,-6.8765089,109.4851407,30.5,12.423529,3.032,249.75674
1776328806542,-3.76605,12.74505,6.16695,14.084316,-0.4499,-0.4929375,0.245575,-6.8765089,109.4851407,30.5,12.423529,3.032,249.75674
1776328806553,7.602,8.307,-5.18205,12.733324,0.38445,-0.064075,-0.104637496,-6.8765089,109.4851407,30.5,12.423529,3.032,249.75674
1776328806564,5.0340004,13.9140005,-7.8910503,15.962101,-0.768075,0.3625875,-0.260975,-6.8765089,109.4851407,30.5,12.423529,3.032,249.75674
1776328806573,-3.85995,7.9120502,16.61895,18.237722,-0.144375,-0.12265,0.055,-6.8765089,109.4851407,30.5,12.423529,3.032,249.75674
1776328806583,-0.88995004,6.3100505,5.163,10.208779,0.494175,0.0848375,-0.3493875,-6.8765089,109.4851407,30.5,12.423529,3.032,249.75674
1776328806597,-5.3689504,10.324051,-1.1920501,11.399795,-0.0572,-0.19813749,-0.02365,-6.8765089,109.4851407,30.5,12.423529,3.032,249.75674
1776328806602,2.52195,2.6170502,13.110001,13.163526,-0.0209,0.3722125,-0.02585,-6.8765089,109.4851407,30.5,12.423529,3.032,249.75674
1776328806613,3.657,9.28005,5.142,11.6103,0.4899125,0.0688875,0.1348875,-6.8765089,109.4851407,30.5,12.423529,3.032,249.75674
1776328806628,-4.4419503,15.96195,-3.39105,15.851618,0.36107498,0.2976875,0.0253,-6.8765089,109.4851407,30.5,12.423529,3.032,249.75674
1776328806633,4.22505,17.473051,-8.784,19.176668,-0.2211,-0.1843875,0.278575,-6.8765089,109.4851407,30.5,12.423529,3.032,249.75674
1776328806657,13.033951,12.58005,-6.4540505,19.219404,0.0545875,-0.0099,0.187,-6.8765089,109.4851407,30.5,12.423529,3.032,249.75674
1776328806657,0.77805007,12.90795,-3.9460502,14.6599245,0.0545875,-0.0099,0.187,-6.8765089,109.4851407,30.5,12.423529,3.032,249.75674
1776328806663,-11.349001,12.517951,4.99095,17.026716,-0.7233875,-0.73562497,-0.100375,-6.8765089,109.4851407,30.5,12.423529,3.032,249.75674
1776328806675,-0.081,1.8550501,15.201001,15.656532,-0.3774375,-0.2503875,-0.0705375,-6.8765089,109.4851407,30.5,12.423529,3.032,249.75674
1776328806690,0.54105,4.8250504,11.400001,13.044009,0.58134997,0.33605,-0.2344375,-6.8765089,109.4851407,30.5,12.423529,3.032,249.75674
1776328806694,-7.122,14.83905,6.52395,16.773146,-0.3179,-0.083325,0.451,-6.8765089,109.4851407,30.5,12.423529,3.032,249.75674
1776328806704,3.4030502,7.1290503,13.516951,15.879474,0.7580375,-0.3078625,0.091299996,-6.8765089,109.4851407,30.5,12.423529,3.032,249.75674
1776328806718,4.038,15.282001,-5.9869504,16.697754,0.71115,0.230725,0.1007875,-6.8765089,109.4851407,30.5,12.423529,3.032,249.75674
1776328806723,0.38805002,17.455952,-10.39605,19.596264,0.31955,0.1881,0.0444125,-6.8765089,109.4851407,30.5,12.423529,3.032,249.75674
1776328806733,10.252951,9.59595,-8.81505,17.18359,-0.68076247,-0.095975,0.1551,-6.8765089,109.4851407,30.5,12.423529,3.032,249.75674
1776328806750,-2.9860501,4.875,14.22105,15.698408,0.0620125,0.359425,-0.45155,-6.8765089,109.4851407,30.5,12.423529,3.032,249.75674
1776328806754,-6.8230505,10.654051,1.96395,13.382179,-0.111375,-0.1577125,0.0774125,-6.8765089,109.4851407,30.5,12.423529,3.032,249.75674
1776328806764,0.61800003,6.564,6.162,9.895887,-0.086899996,-0.132275,0.385,-6.8765089,109.4851407,30.5,12.423529,3.032,249.75674
1776328806775,2.661,6.94005,4.6410003,8.989302,0.3760625,0.5839625,-0.13653749,-6.8765089,109.4851407,30.5,12.423529,3.032,249.75674
1776328806786,-3.34995,14.230051,-3.6520503,13.852509,0.25575,0.083875,0.2806375,-6.8765089,109.4851407,30.5,12.423529,3.032,249.75674
1776328806797,6.1410003,9.688951,-9.0379505,14.453576,-0.23595,0.0380875,0.1199,-6.8765089,109.4851407,30.5,12.423529,3.032,249.75674
1776328806806,0.26595002,7.53105,10.842001,13.453638,-0.4519625,-0.032175,-0.066275,-6.8765089,109.4851407,30.5,12.423529,3.032,249.75674
1776328806815,-3.25395,11.34195,9.0379505,14.58123,0.3323375,-0.44825,0.0996875,-6.8765089,109.4851407,30.5,12.423529,3.032,249.75674
1776328806826,5.2309504,11.545051,-4.368,13.641334,0.1216875,0.147675,0.0507375,-6.8765089,109.4851407,30.5,12.423529,3.032,249.75674
1776328806839,1.4110501,13.36305,-0.85395,13.499826,-0.555225,-0.0748,0.0380875,-6.8765089,109.4851407,30.5,12.423529,3.032,249.75674
1776328806848,2.5189502,9.58605,9.496051,13.681039,0.22165,0.4360125,0.0763125,-6.8765089,109.4851407,30.5,12.423529,3.032,249.75674
1776328806855,2.6779501,8.331,0.13095,9.737654,-0.17105,0.0859375,-0.0204875,-6.8765089,109.4851407,30.5,12.423529,3.032,249.75674
1776328806865,-7.9189506,8.784,4.0690503,11.953149,0.164175,0.1912625,-0.1269125,-6.8765089,109.4851407,30.5,12.423529,3.032,249.75674
1776328806876,1.21905,5.3880005,3.8940003,7.7975807,-0.2316875,0.17325,0.2891625,-6.8765089,109.4851407,30.5,12.423529,3.032,249.75674
1776328806885,3.9439502,4.0150504,8.21205,9.523963,0.2600125,-0.1705,0.07205,-6.8765089,109.4851407,30.5,12.423529,3.032,249.75674
1776328806895,-0.98805004,11.397,-2.9620502,11.3583975,0.102437496,0.2732125,-0.165275,-6.8765089,109.4851407,30.5,12.423529,3.032,249.75674
1776328806905,1.1659501,11.94495,-4.0729504,12.410877,-0.162525,-0.2589125,0.3881625,-6.8765089,109.4851407,30.5,12.423529,3.032,249.75674
1776328806925,5.2429504,10.398001,1.31895,11.857773,-0.18053749,-0.35255,-0.1035375,-6.8765089,109.4851407,30.5,12.423529,3.032,249.75674
1776328806927,-0.24795002,11.866051,0.31095,11.869726,-0.18053749,-0.35255,-0.1035375,-6.8765089,109.4851407,30.5,12.423529,3.032,249.75674
1776328806936,2.232,12.154051,-5.9940004,13.36138,-0.117837496,-0.4844125,-0.066275,-6.8765089,109.4851407,30.5,12.423529,3.032,249.75674
1776328806954,2.742,5.4640503,6.45195,9.782925,-0.292325,0.3403125,-0.410025,-6.8765089,109.4851407,30.5,12.423529,3.032,249.75674
1776328806956,-6.1140003,9.222,9.46695,13.606119,0.28875,-0.2919125,-0.0928125,-6.8765089,109.4851407,30.5,12.423529,3.032,249.75674
1776328806967,2.5120502,9.459001,-0.89295006,10.583252,0.1546875,0.1412125,-0.0748,-6.8765089,109.4851407,30.5,12.423529,3.032,249.75674
1776328806978,4.48605,9.688951,2.5740001,10.903036,-0.5094375,-0.050325,0.063525,-6.8765089,109.4851407,30.5,12.423529,3.032,249.75674
1776328806987,-3.9150002,7.1719503,12.23295,13.949289,0.104637496,0.1232,-0.0088,-6.8765089,109.4851407,30.5,12.423529,3.032,249.75674
1776328807002,3.006,9.850051,-9.417001,13.953784,-0.341275,-0.073699996,-0.19607499,-6.8765089,109.4851407,30.5,12.423529,3.032,249.75674
1776328807007,0.064950004,7.9600506,3.147,9.638599,-0.62535,0.148775,0.1018875,-6.8765089,109.4851407,30.5,12.423529,3.032,249.75674
1776328807016,-0.96900004,1.4650501,17.191051,15.752165,0.3388,0.13695,-0.26633748,-6.8765089,109.4851407,30.5,12.423529,3.032,249.75674
1776328807041,0.13605,12.151051,-5.0550003,13.679466,0.8069875,0.0050875,-0.02475,-6.8765089,109.4851407,30.5,12.423529,3.032,249.75674
1776328807042,1.72905,13.62705,-5.59695,14.602134,0.8069875,0.0050875,-0.02475,-6.8765089,109.4851407,30.5,12.423529,3.032,249.75674
1776328807051,0.9289501,9.423,12.399,15.401224,-0.6733375,-0.31955,0.0358875,-6.8765089,109.4851407,30.5,12.423529,3.032,249.75674
1776328807057,3.2569501,13.287001,-0.36795002,14.028487,-0.275275,-0.41635,-0.0726,-6.8765089,109.4851407,30.5,12.423529,3.032,249.75674
1776328807073,-0.92805004,13.34895,-5.6179504,14.415821,-0.275275,-0.41635,-0.0726,-6.8765089,109.4851407,30.5,12.423529,3.032,249.75674
1776328807083,-0.61005,7.7730002,-0.53595,9.135406,0.0738375,-0.7910375,0.2072125,-6.8765089,109.4851407,30.5,12.423529,3.032,249.75674
1776328807088,8.052,4.23105,0.081,9.104138,-0.16995,0.394625,-0.38665,-6.8765089,109.4851407,30.5,12.423529,3.032,249.75674
1776328807099,-3.558,8.985001,10.320001,13.131481,-0.0837375,0.0710875,-0.13653749,-6.8765089,109.4851407,30.5,12.423529,3.032,249.75674
1776328807108,-7.8,7.038,14.58495,17.006155,0.0950125,0.180675,-0.1205875,-6.8765089,109.4851407,30.5,12.423529,3.032,249.75674
1776328807117,-0.028050002,10.03695,7.7790003,13.560097,0.5707625,0.1243,0.1241625,-6.8765089,109.4851407,30.5,12.423529,3.032,249.75674
1776328807127,6.9979506,12.43605,-8.0779505,15.830067,0.2440625,-0.2344375,0.227425,-6.8765089,109.4851407,30.5,12.423529,3.032,249.75674
1776328807144,3.3310502,10.35,-3.9780002,12.428165,0.4324375,0.451,-0.2014375,-6.8765089,109.4851407,30.5,12.423529,3.032,249.75674
1776328807149,1.71,10.257001,-5.4739504,11.886716,-0.56155,0.3221625,0.13915,-6.8765089,109.4851407,30.5,12.423529,3.032,249.75674
1776328807160,-1.04595,5.2699504,6.399,9.061705,0.1854875,-0.0077,-0.2237125,-6.8765089,109.4851407,30.5,12.423529,3.032,249.75674
1776328807170,-0.27195,11.260051,-4.2840004,11.452767,-0.0251625,0.091299996,-0.0683375,-6.8765089,109.4851407,30.5,12.423529,3.032,249.75674
1776328807183,3.4459503,11.368051,0.69900006,11.810076,-0.310475,-0.328075,0.0774125,-6.8765089,109.4851407,30.5,12.423529,3.032,249.75674
1776328807190,4.95795,7.5769506,5.59695,10.878063,0.2355375,0.20405,-0.3887125,-6.8765089,109.4851407,30.5,12.423529,3.032,249.75674
1776328807202,-4.1140504,13.984051,-5.8050003,14.727639,-0.3796375,-0.28545,-0.1035375,-6.8765089,109.4851407,30.5,12.423529,3.032,249.75674
1776328807222,-5.80905,8.904,7.0150504,13.135318,-0.4923875,-0.0534875,0.0380875,-6.8765089,109.4851407,30.5,12.423529,3.032,249.75674
1776328807229,4.2010503,2.3479502,15.607951,15.693536,0.35901248,0.3210625,-0.12485,-6.8765089,109.4851407,30.5,12.423529,3.032,249.75674
1776328807232,-1.7359501,10.69005,5.3260503,12.793799,0.4494875,-0.1747625,0.00715,-6.8765089,109.4851407,30.5,12.423529,3.032,249.75674
1776328807242,0.28500003,11.81595,-4.74195,12.746878,-0.022,0.014575,-0.102437496,-6.8765089,109.4851407,30.5,12.423529,3.032,249.75674
1776328807252,7.4149504,9.871051,-4.26,12.997472,0.017324999,-0.015125,0.3317875,-6.8765089,109.4851407,30.5,12.423529,3.032,249.75674
1776328807261,3.9180002,10.924951,-1.59195,11.971437,-0.10285,0.71802497,-0.3056625,-6.8765089,109.4851407,30.5,12.423529,3.032,249.75674
1776328807271,-6.7579503,7.8120003,9.525001,13.634869,-0.4785,-0.23333749,-0.013062499,-6.8765089,109.4851407,30.5,12.423529,3.032,249.75674
1776328807281,-0.78000003,5.0410504,4.7899504,8.324928,-0.046475,-0.0748,-0.17379999,-6.8765089,109.4851407,30.5,12.423529,3.032,249.75674
1776328807291,-2.394,6.9250503,12.813001,13.473066,0.2429625,0.687225,0.0911625,-6.8765089,109.4851407,30.5,12.423529,3.032,249.75674
1776328807305,1.6309501,8.19495,4.31295,10.217113,0.2398,0.3903625,-0.278025,-6.8765089,109.4851407,30.5,12.423529,3.032,249.75674
1776328807312,3.6000001,11.15295,-3.3070502,11.785205,0.0408375,0.375375,-0.1172875,-6.8765089,109.4851407,30.5,12.423529,3.032,249.75674
1776328807322,-0.57600003,13.774951,-4.9120502,14.065754,-0.159225,-0.2003375,0.21779999,-6.8765089,109.4851407,30.5,12.423529,3.032,249.75674
1776328807332,5.0389504,12.74505,-5.0290504,14.49202,-0.260425,-0.1577125,-0.0726,-6.8765089,109.4851407,30.5,12.423529,3.032,249.75674
1776328807342,4.1670003,7.8430505,6.9019504,11.896688,-0.20295,0.541475,-0.2492875,-6.8765089,109.4851407,30.5,12.423529,3.032,249.75674
1776328807354,-10.137,9.67695,17.99805,20.627968,0.1205875,-0.45787498,-0.1769625,-6.8765089,109.4851407,30.5,12.423529,3.032,249.75674
1776328807362,-3.048,9.45195,6.2080503,13.495146,0.314325,-0.49513748,0.1486375,-6.8765089,109.4851407,30.5,12.423529,3.032,249.75674
1776328807383,9.963,5.9100003,-9.120001,14.493642,-0.044275,0.21573749,0.097625,-6.8765089,109.4851407,30.5,12.423529,3.032,249.75674
1776328807384,-3.9270003,11.998051,6.1000504,14.115435,-0.044275,0.21573749,0.097625,-6.8765089,109.4851407,30.5,12.423529,3.032,249.75674
1776328807392,2.2369502,7.31295,3.3430502,9.500052,0.5473875,0.2231625,-0.0375375,-6.8765089,109.4851407,30.5,12.423529,3.032,249.75674
1776328807402,3.75795,10.924951,-8.454,13.352782,0.3441625,0.20295,-0.260975,-6.8765089,109.4851407,30.5,12.423529,3.032,249.75674
1776328807413,-5.556,13.588051,5.4529505,15.198643,-0.3870625,-0.0375375,0.0518375,-6.8765089,109.4851407,30.5,12.423529,3.032,249.75674
1776328807428,4.8349504,5.256,8.44695,11.888802,0.74745,0.179575,-0.1524875,-6.8765089,109.4851407,30.5,12.423529,3.032,249.75674
1776328807432,5.80095,13.561951,-12.436951,17.812895,0.077,0.20295,-0.25575,-6.8765089,109.4851407,30.5,12.423529,3.032,249.75674
1776328807442,-4.32705,10.975051,-0.81105006,13.022657,-0.9414625,0.0433125,0.117837496,-6.8765089,109.4851407,30.5,12.423529,3.032,249.75674
1776328807455,2.36595,6.1780505,9.096001,11.602425,0.296175,-0.12375,0.1731125,-6.8765089,109.4851407,30.5,12.423529,3.032,249.75674
1776328807466,2.80905,10.36695,4.6909504,11.696861,-0.1071125,0.2732125,-0.293975,-6.8765089,109.4851407,30.5,12.423529,3.032,249.75674
1776328807478,-5.1460505,12.606001,2.6149502,13.431166,-0.094325,-0.9367875,0.17105,-6.8765089,109.4851407,30.5,12.423529,3.032,249.75674
1776328807488,7.3450503,11.22,-3.7999501,13.836919,-0.012375,0.20405,-0.1056,-6.8765089,109.4851407,30.5,12.423529,3.032,249.75674
1776328807500,4.6579504,8.607,5.6280003,11.798931,0.1535875,0.557425,-0.5589375,-6.8765089,109.4851407,30.5,12.423529,3.032,249.75674
1776328807506,-12.58695,14.142,11.766001,20.192184,0.134475,-0.4684625,0.013475,-6.8765089,109.4851407,30.5,12.423529,3.032,249.75674
1776328807523,5.5080004,7.4740505,-1.125,11.520261,0.011,-0.0460625,-0.263175,-6.8765089,109.4851407,30.5,12.423529,3.032,249.75674
1776328807527,5.2380004,5.7250504,2.1360002,8.742703,-0.3284875,0.2146375,-0.19085,-6.8765089,109.4851407,30.5,12.423529,3.032,249.75674
1776328807533,-7.8160505,13.47105,8.83005,16.071213,0.2728,-0.0353375,0.23705,-6.8765089,109.4851407,30.5,12.423529,3.032,249.75674
1776328807543,6.339,7.3399506,-4.6980004,11.835298,-0.2443375,0.344575,0.0444125,-6.8765089,109.4851407,30.5,12.423529,3.032,249.75674
1776328807555,-0.96900004,9.483001,5.1660004,11.040839,0.22385,-0.44825,0.0922625,-6.8765089,109.4851407,30.5,12.423529,3.032,249.75674
1776328807564,2.2339501,11.404051,-10.132951,14.542695,-0.2050125,0.0955625,-0.0523875,-6.8765089,109.4851407,30.5,12.423529,3.032,249.75674
1776328807573,0.28695002,8.956051,1.5780001,10.187365,-0.518925,-0.2971375,-0.013062499,-6.8765089,109.4851407,30.5,12.423529,3.032,249.75674
1776328807585,-0.82305,5.769,14.394001,14.460575,-0.079475,0.0944625,-0.08965,-6.8765089,109.4851407,30.5,12.423529,3.032,249.75674
1776328807593,-2.28195,9.20505,7.2060003,12.42074,0.1749,-0.2418625,0.033825,-6.8765089,109.4851407,30.5,12.423529,3.032,249.75674
1776328807604,-2.4060001,13.15005,-2.1690001,13.318677,-0.1252625,-0.212025,0.2519,-6.8765089,109.4851407,30.5,12.423529,3.032,249.75674
1776328807616,4.5820503,7.6080003,2.9190001,10.142662,0.4079625,0.33495,-0.12155,-6.8765089,109.4851407,30.5,12.423529,3.032,249.75674
1776328807628,1.8060001,16.22295,-2.5740001,15.248426,-0.1816375,-0.394075,0.0572,-6.8765089,109.4851407,30.5,12.423529,3.032,249.75674
1776328807636,0.864,7.4760003,5.18505,10.360908,-0.3051125,0.40301248,-0.0961125,-6.8765089,109.4851407,30.5,12.423529,3.032,249.75674
1776328807643,-3.108,6.9349504,4.7970004,9.2617035,0.4717625,0.07205,0.0666875,-6.8765089,109.4851407,30.5,12.423529,3.032,249.75674
1776328807652,-0.040050004,13.21905,-6.14295,13.513716,0.184525,0.0603625,0.1881,-6.8765089,109.4851407,30.5,12.423529,3.032,249.75674
1776328807661,8.454,3.381,-2.1720002,10.191139,-0.5009125,0.0540375,0.0603625,-6.8765089,109.4851407,30.5,12.423529,3.032,249.75674
1776328807671,-3.85995,7.0519505,8.78895,11.567127,-0.0325875,-0.0939125,-0.163075,-6.8765089,109.4851407,30.5,12.423529,3.032,249.75674
1776328807692,-1.79295,10.20705,-0.097950004,10.604458,0.104637496,0.2349875,0.10725,-6.8765089,109.4851407,30.5,12.423529,3.032,249.75674
1776328807693,4.3969502,8.122951,-5.03805,10.53792,-0.374275,0.2754125,-0.0397375,-6.8765089,109.4851407,30.5,12.423529,3.032,249.75674
1776328807703,0.36900002,7.8190503,9.012,11.657113,-0.2880625,0.0551375,-0.1588125,-6.8765089,109.4851407,30.5,12.423529,3.032,249.75674
1776328807713,0.54105,9.712951,2.0640001,10.287069,0.1621125,-0.341825,0.0028875,-6.8765089,109.4851407,30.5,12.423529,3.032,249.75674
1776328807726,1.7629501,14.581951,-12.310051,17.389025,-1.0649375,-0.344025,0.2094125,-6.8765089,109.4851407,30.5,12.423529,3.032,249.75674
1776328807738,1.07805,7.1070004,8.133,12.161302,-0.438075,0.5509625,-0.278025,-6.8765089,109.4851407,30.5,12.423529,3.032,249.75674
1776328807743,-2.77305,10.02705,17.457,18.689758,0.3345375,-0.31955,-0.065175,-6.8765089,109.4851407,30.5,12.423529,3.032,249.75674
1776328807753,-0.91200006,13.272,2.7589502,14.60705,-0.2497,-0.41854998,0.0922625,-6.8765089,109.4851407,30.5,12.423529,3.032,249.75674
1776328807762,1.296,8.379001,0.99405,9.750777,0.020624999,0.033825,0.0625625,-6.8765089,109.4851407,30.5,12.423529,3.032,249.75674
1776328807772,2.709,10.55895,2.196,10.846088,-0.210375,-0.18865,0.3179,-6.8765089,109.4851407,30.5,12.423529,3.032,249.75674
1776328807784,1.5690001,4.5040503,11.005051,11.764529,0.021724999,0.4860625,-0.1343375,-6.8765089,109.4851407,30.5,12.423529,3.032,249.75674
1776328807793,-7.8790503,11.598001,6.768,14.808238,0.0237875,-0.1695375,0.359425,-6.8765089,109.4851407,30.5,12.423529,3.032,249.75674
1776328807804,3.3409503,8.679001,2.3160002,10.628756,0.247225,-0.013062499,0.10615,-6.8765089,109.4851407,30.5,12.423529,3.032,249.75674
1776328807814,5.12295,10.401,6.531,12.771445,-0.192225,-0.1269125,-0.02695,-6.8765089,109.4851407,30.5,12.423529,3.032,249.75674
1776328807828,-4.6650004,13.888051,8.523001,16.113798,0.266475,-0.1194875,0.1838375,-6.8765089,109.4851407,30.5,12.423529,3.032,249.75674
1776328807840,-0.354,12.39795,1.9560001,13.267792,0.281325,-0.034375,0.0592625,-6.8765089,109.4851407,30.5,12.423529,3.032,249.75674
1776328807843,6.2650504,8.73795,-9.441,14.100413,0.1387375,-0.6898375,0.3614875,-6.8765089,109.4851407,30.5,12.423529,3.032,249.75674
1776328807853,-0.18405001,11.088,-4.749,12.470968,0.2366375,0.3403125,-0.278025,-6.8765089,109.4851407,30.5,12.423529,3.032,249.75674
1776328807864,2.9340003,9.162001,-1.00995,10.232746,-0.0985875,-0.4675,0.259325,-6.8765089,109.4851407,30.5,12.423529,3.032,249.75674
1776328807873,5.61105,7.1599503,0.354,9.329366,0.143,0.1678875,-0.2685375,-6.8765089,109.4851407,30.5,12.423529,3.032,249.75674
1776328807893,-11.526001,14.170051,16.74105,21.687508,-0.0559625,0.40301248,-0.2652375,-6.8765089,109.4851407,30.5,12.423529,3.032,249.75674
1776328807894,-1.05495,10.71195,2.5770001,13.19187,0.4569125,-0.5281375,0.424325,-6.8765089,109.4851407,30.5,12.423529,3.032,249.75674
1776328807903,8.31495,14.997001,-15.093,20.913553,0.3069,0.2402125,0.1816375,-6.8765089,109.4851407,30.5,12.423529,3.032,249.75674
1776328807914,7.3380003,4.71705,-2.8540502,11.525404,-0.782925,0.1285625,0.1423125,-6.8765089,109.4851407,30.5,12.423529,3.032,249.75674
1776328807927,-5.5630503,10.065001,2.65995,11.748034,-0.2369125,-0.427075,0.1412125,-6.8765089,109.4851407,30.5,12.423529,3.032,249.75674
1776328807934,0.93405,8.431951,-1.7569501,9.280448,-0.224125,-0.2717,-0.082225,-6.8765089,109.4851407,30.5,12.423529,3.032,249.75674
1776328807944,2.9190001,10.38105,5.118,11.405312,-0.20185,-0.0290125,0.1018875,-6.8765089,109.4851407,30.5,12.423529,3.032,249.75674
1776328807963,-0.19995001,13.618951,9.32295,15.485502,-0.2231625,-0.51535,-0.1588125,-6.8765089,109.4851407,30.5,12.423529,3.032,249.75674
1776328807965,7.0750504,11.524051,-11.938951,17.528149,-0.2231625,-0.51535,-0.1588125,-6.8765089,109.4851407,30.5,12.423529,3.032,249.75674
1776328807974,-10.767,13.024951,12.97605,20.550617,-0.9158875,0.2242625,-0.2259125,-6.8765089,109.4851407,30.5,12.423529,3.032,249.75674
1776328807985,-2.3749502,1.47405,29.044052,27.45272,0.5240125,-0.0631125,0.3040125,-6.8765089,109.4851407,30.5,12.423529,3.032,249.75674
1776328807994,6.1480503,7.11,-6.6240005,14.68978,0.836825,0.4615875,-2.75E-4,-6.8765089,109.4851407,30.5,12.423529,3.032,249.75674
1776328808006,-1.8000001,17.46105,-21.18795,24.949697,0.021724999,0.014575,-0.0609125,-6.8765089,109.4851407,30.5,12.423529,3.032,249.75674
1776328808016,8.67,6.846,-1.1899501,13.878678,-0.502975,0.1348875,0.33275,-6.8765089,109.4851407,30.5,12.423529,3.032,249.75674
1776328808027,7.37895,8.655001,-0.064050004,11.874731,-0.1049125,0.121,-0.25465,-6.8765089,109.4851407,30.5,12.423529,3.032,249.75674
1776328808039,-15.231001,10.044001,20.230051,24.168455,-0.4136,0.0518375,0.0358875,-6.8765089,109.4851407,30.5,12.423529,3.032,249.75674
1776328808045,-6.0199504,3.417,21.30105,22.751734,0.1120625,-0.4632375,0.30195,-6.8765089,109.4851407,30.5,12.423529,3.032,249.75674
1776328808055,1.69605,6.5950503,14.65995,17.481808,0.5451875,0.1029875,0.086899996,-6.8765089,109.4851407,30.5,12.423529,3.032,249.75674
1776328808065,3.6739502,6.90105,-1.7190001,9.9002285,0.6846125,0.1104125,0.293425,-6.8765089,109.4851407,30.5,12.423529,3.032,249.75674
1776328808075,1.6860001,15.793951,-15.277051,19.61056,0.2866875,-0.3067625,0.20185,-6.8765089,109.4851407,30.5,12.423529,3.032,249.75674
1776328808090,6.6649504,10.113001,-8.7960005,15.897125,-0.46145,0.3636875,0.0210375,-6.8765089,109.4851407,30.5,12.423529,3.032,249.75674
1776328808096,2.28495,12.74295,-2.7250502,13.763329,0.100375,-0.13653749,0.2211,-6.8765089,109.4851407,30.5,12.423529,3.032,249.75674
1776328808106,3.9799502,12.348001,-6.9019504,14.508856,-0.241175,0.0253,0.0444125,-6.8765089,109.4851407,30.5,12.423529,3.032,249.75674
1776328808131,-1.88205,3.59205,10.177951,11.666633,0.0429,0.3158375,0.1912625,-6.8765089,109.4851407,30.5,12.423529,3.032,249.75674
1776328808132,-9.28695,3.1699502,17.46405,18.359087,0.0429,0.3158375,0.1912625,-6.8765089,109.4851407,30.5,12.423529,3.032,249.75674
1776328808143,-6.0540004,2.08305,15.92205,17.40066,0.0429,0.3158375,0.1912625,-6.8765089,109.4851407,30.5,12.423529,3.032,249.75674
1776328808149,1.7149501,6.25005,-0.04695,8.665118,1.100825,-0.54725,0.5775,-6.8765089,109.4851407,30.5,12.423529,3.032,249.75674
1776328808160,11.259001,14.167951,-23.941952,25.742527,0.0056375,0.2732125,-0.146025,-6.8765089,109.4851407,30.5,12.423529,3.032,249.75674
1776328808169,3.3270001,15.981001,-7.8619504,19.64312,-0.339075,-0.22275,0.1093125,-6.8765089,109.4851407,30.5,12.423529,3.032,249.75674
1776328808179,9.460051,10.22805,-8.146951,16.840097,-0.0644875,0.0028875,-0.09075,-6.8765089,109.4851407,30.5,12.423529,3.032,249.75674
1776328808196,1.36995,11.21205,-3.9940503,12.95265,-0.6732,0.114675,-0.1684375,-6.8765089,109.4851407,30.5,12.423529,3.032,249.75674
1776328808199,-11.713051,5.1940503,14.359951,17.986776,-0.9053,-0.2481875,0.129525,-6.8765089,109.4851407,30.5,12.423529,3.032,249.75674
1776328808208,-4.143,4.15905,14.911051,16.41738,0.084425,0.1519375,0.20405,-6.8765089,109.4851407,30.5,12.423529,3.032,249.75674
1776328808219,5.7169504,3.45,7.5490503,11.346197,0.0886875,0.3317875,0.1401125,-6.8765089,109.4851407,30.5,12.423529,3.032,249.75674
1776328808228,-0.96900004,9.864,3.6090002,10.707717,0.3729,0.0273625,-0.23127499,-6.8765089,109.4851407,30.5,12.423529,3.032,249.75674
1776328808241,-2.49705,10.76895,8.47305,13.284201,-0.2294875,0.2179375,0.115637496,-6.8765089,109.4851407,30.5,12.423529,3.032,249.75674
1776328808249,7.21395,12.7240505,-4.43505,14.884343,0.38885,-0.5856125,0.2211,-6.8765089,109.4851407,30.5,12.423529,3.032,249.75674
1776328808258,4.60995,15.154951,-8.905951,17.514877,0.09405,0.21573749,-0.017324999,-6.8765089,109.4851407,30.5,12.423529,3.032,249.75674
1776328808273,-3.04095,9.89805,9.949051,14.990775,-0.5743375,-0.279125,8.25E-4,-6.8765089,109.4851407,30.5,12.423529,3.032,249.75674
1776328808278,0.77595,8.889001,6.4230003,11.793476,0.0759,-0.247225,-0.0204875,-6.8765089,109.4851407,30.5,12.423529,3.032,249.75674
1776328808288,-0.933,5.9940004,7.7640004,10.240958,-0.036849998,0.6436375,-0.2514875,-6.8765089,109.4851407,30.5,12.423529,3.032,249.75674
1776328808297,-6.97305,5.33295,13.46895,14.909954,0.1749,-0.2173875,0.2316875,-6.8765089,109.4851407,30.5,12.423529,3.032,249.75674
1776328808307,7.077,7.9890003,-1.218,11.575629,0.069575,-0.0375375,0.0891,-6.8765089,109.4851407,30.5,12.423529,3.032,249.75674
1776328808319,4.86705,9.165,2.2699502,10.8131485,-0.2816,0.33385,-0.115225,-6.8765089,109.4851407,30.5,12.423529,3.032,249.75674
1776328808330,-7.4740505,12.931951,8.286,15.827291,0.381425,-0.131175,0.0826375,-6.8765089,109.4851407,30.5,12.423529,3.032,249.75674
1776328808364,-1.12995,8.52,15.33495,17.22881,0.407,-0.6026625,0.2880625,-6.8765089,109.4851407,30.5,12.423529,3.032,249.75674
1776328808375,16.20705,1.764,-9.31095,18.465195,0.407,-0.6026625,0.2880625,-6.8765089,109.4851407,30.5,12.423529,3.032,249.75674
1776328808375,7.518,5.6080503,-16.65405,18.983883,0.407,-0.6026625,0.2880625,-6.8765089,109.4851407,30.5,12.423529,3.032,249.75674
1776328808375,-5.39295,18.550951,-9.963,21.186117,0.407,-0.6026625,0.2880625,-6.8765089,109.4851407,30.5,12.423529,3.032,249.75674
1776328808381,-5.3380504,15.519001,-13.93605,21.46135,0.1079375,0.0796125,-0.2728,-6.8765089,109.4851407,30.5,12.423529,3.032,249.75674
1776328808392,4.27005,5.15805,-10.224001,14.069599,0.1079375,0.0796125,-0.2728,-6.8765089,109.4851407,30.5,12.423529,3.032,249.75674
1776328808392,9.108001,2.70495,8.49705,13.01109,-0.3262875,-0.0182875,0.194425,-6.8765089,109.4851407,30.5,12.423529,3.032,249.75674
1776328808401,2.93895,2.36505,13.242001,13.617306,0.1771,0.047575,-0.1269125,-6.8765089,109.4851407,30.5,12.423529,3.032,249.75674
1776328808407,5.0410504,6.8869505,5.946,11.044891,0.1771,0.047575,-0.1269125,-6.8765089,109.4851407,30.5,12.423529,3.032,249.75674
1776328808410,-1.383,14.340001,-2.739,13.940658,0.4739625,0.26785,-0.35365,-6.8765089,109.4851407,30.5,12.423529,3.032,249.75674
1776328808417,-11.835001,19.13805,-4.9429502,21.218801,0.4739625,0.26785,-0.35365,-6.8765089,109.4851407,30.5,12.423529,3.032,249.75674
1776328808428,-6.7909503,5.1049504,0.73995006,11.066079,-0.127325,0.2413125,-0.02585,-6.8765089,109.4851407,30.5,12.423529,3.032,249.75674
1776328808428,0.92700005,8.86095,25.212002,23.605114,0.077,0.1881,0.144375,-6.8765089,109.4851407,30.5,12.423529,3.032,249.75674
1776328808433,-3.3310502,9.129001,15.106951,19.091093,0.077,0.1881,0.144375,-6.8765089,109.4851407,30.5,12.423529,3.032,249.75674
1776328808433,13.491,5.256,-4.629,15.978752,0.106837496,-0.6483125,0.0603625,-6.8765089,109.4851407,30.5,12.423529,3.032,249.75674
1776328808435,17.86395,13.677001,0.39000002,21.19723,0.106837496,-0.6483125,0.0603625,-6.8765089,109.4851407,30.5,12.423529,3.032,249.75674
1776328808439,-14.032051,16.173,-1.3069501,21.400753,0.3994375,0.9692375,-0.3812875,-6.8765089,109.4851407,30.5,12.423529,3.032,249.75674
1776328808447,-11.172001,15.952051,10.401,21.942991,-0.0422125,0.115775,-0.4142875,-6.8765089,109.4851407,30.5,12.423529,3.032,249.75674
1776328808460,3.3030002,8.88,2.6820002,12.265952,-0.46461248,-0.3067625,0.1252625,-6.8765089,109.4851407,30.5,12.423529,3.032,249.75674
1776328808460,3.1920002,14.28495,-5.355,14.922024,0.103675,0.0273625,0.115637496,-6.8765089,109.4851407,30.5,12.423529,3.032,249.75674
1776328808466,5.2710004,13.581,-4.3369503,15.144304,0.103675,0.0273625,0.115637496,-6.8765089,109.4851407,30.5,12.423529,3.032,249.75674
1776328808468,13.302001,10.22805,1.0489501,16.478775,-0.40507498,-0.4632375,0.055,-6.8765089,109.4851407,30.5,12.423529,3.032,249.75674
1776328808475,-2.4180002,13.345951,2.70105,14.359406,-0.0389125,0.49774998,-0.114125,-6.8765089,109.4851407,30.5,12.423529,3.032,249.75674
1776328808480,-4.9830003,16.216051,-3.4650002,16.723595,0.1802625,0.0529375,-0.3025,-6.8765089,109.4851407,30.5,12.423529,3.032,249.75674
1776328808493,10.1310005,6.5010004,-8.569051,15.1654825,-0.49981248,-0.1078,-0.130075,-6.8765089,109.4851407,30.5,12.423529,3.032,249.75674
1776328808493,0.34995002,5.70195,3.0940502,8.230502,-0.49981248,-0.1078,-0.130075,-6.8765089,109.4851407,30.5,12.423529,3.032,249.75674
1776328808501,-11.172001,7.122,21.699001,21.985355,-0.46461248,0.4818,-0.28655,-6.8765089,109.4851407,30.5,12.423529,3.032,249.75674
1776328808504,-8.34795,2.59995,20.199001,22.005209,-0.3817,0.121,-0.068475,-6.8765089,109.4851407,30.5,12.423529,3.032,249.75674
1776328808509,-4.2000003,1.014,19.584002,20.445007,0.3377,0.2338875,0.1582625,-6.8765089,109.4851407,30.5,12.423529,3.032,249.75674
1776328808511,-5.47905,7.7779503,17.34,19.911865,0.3377,0.2338875,0.1582625,-6.8765089,109.4851407,30.5,12.423529,3.032,249.75674
1776328808531,-0.83505005,9.78705,9.87405,15.124525,0.4835875,-0.1907125,0.154,-6.8765089,109.4851407,30.5,12.423529,3.032,249.75674
1776328808531,6.86595,4.37895,12.813001,15.170409,0.7007,0.2891625,-0.1343375,-6.8765089,109.4851407,30.5,12.423529,3.032,249.75674
1776328808532,0.36600003,6.11595,25.902,24.3275,0.7007,0.2891625,-0.1343375,-6.8765089,109.4851407,30.5,12.423529,3.032,249.75674
1776328808536,-11.349001,10.314,12.751051,20.820791,0.7007,0.2891625,-0.1343375,-6.8765089,109.4851407,30.5,12.423529,3.032,249.75674
1776328808539,3.35805,15.54705,-6.2380505,17.832237,0.92303747,-0.4450875,0.041249998,-6.8765089,109.4851407,30.5,12.423529,3.032,249.75674
1776328808546,6.0160503,22.222052,-26.749052,31.800035,1.4488375,-0.100237496,0.36685,-6.8765089,109.4851407,30.5,12.423529,3.032,249.75674
1776328808549,6.5719504,25.25205,-40.93695,45.196613,1.294425,-0.31955,0.291225,-6.8765089,109.4851407,30.5,12.423529,3.032,249.75674
1776328808561,23.368052,11.91195,-41.55495,48.351604,-0.9626375,-0.41525,0.2987875,-6.8765089,109.4851407,30.5,12.423529,3.032,249.75674
1776328808565,23.81805,7.48605,-14.55195,32.788795,-0.9626375,-0.41525,0.2987875,-6.8765089,109.4851407,30.5,12.423529,3.032,249.75674
1776328808570,-6.0150003,6.86805,11.568001,18.347084,-0.994675,1.3630375,-0.4015,-6.8765089,109.4851407,30.5,12.423529,3.032,249.75674
1776328808575,-13.420951,13.288951,25.581001,29.107729,-1.0041625,0.17847499,-0.8537375,-6.8765089,109.4851407,30.5,12.423529,3.032,249.75674
1776328808586,1.0390501,4.8439503,5.96295,12.023495,-0.10065,0.1445125,-0.15455,-6.8765089,109.4851407,30.5,12.423529,3.032,249.75674
1776328808590,-3.999,9.47805,8.49195,13.076192,0.0801625,-0.22275,-0.08965,-6.8765089,109.4851407,30.5,12.423529,3.032,249.75674
1776328808591,-15.94305,4.6410003,8.262,17.452606,0.0801625,-0.22275,-0.08965,-6.8765089,109.4851407,30.5,12.423529,3.032,249.75674
1776328808591,2.1390002,5.7450004,8.227051,11.698409,0.0801625,-0.22275,-0.08965,-6.8765089,109.4851407,30.5,12.423529,3.032,249.75674
1776328808591,-4.6330504,13.93605,0.61305004,14.098715,0.0801625,-0.22275,-0.08965,-6.8765089,109.4851407,30.5,12.423529,3.032,249.75674
1776328808591,-1.812,12.738001,0.024,13.112749,0.0801625,-0.22275,-0.08965,-6.8765089,109.4851407,30.5,12.423529,3.032,249.75674
1776328808594,14.947051,1.19895,9.361951,16.764639,-0.4923875,-0.5292375,0.3722125,-6.8765089,109.4851407,30.5,12.423529,3.032,249.75674
1776328808600,2.088,-2.1990001,12.633,13.746405,0.4846875,0.4786375,-0.279125,-6.8765089,109.4851407,30.5,12.423529,3.032,249.75674
1776328808608,-8.154,13.524,10.665001,17.994026,0.4846875,0.4786375,-0.279125,-6.8765089,109.4851407,30.5,12.423529,3.032,249.75674
1776328808609,-6.3559504,15.751051,-11.766001,20.12868,0.7442875,-0.1120625,-0.1865875,-6.8765089,109.4851407,30.5,12.423529,3.032,249.75674
1776328808616,4.701,9.711,-17.986052,20.804789,0.4101625,-0.377025,0.13805,-6.8765089,109.4851407,30.5,12.423529,3.032,249.75674
1776328808620,5.40105,7.5340505,-4.7629504,12.498592,-0.1868625,0.154,0.324225,-6.8765089,109.4851407,30.5,12.423529,3.032,249.75674
1776328808630,3.9829502,12.657001,1.626,13.194239,-0.32945,-0.1343375,0.0507375,-6.8765089,109.4851407,30.5,12.423529,3.032,249.75674
1776328808631,8.27505,10.98495,2.80395,13.867603,-0.226325,0.0253,-0.066275,-6.8765089,109.4851407,30.5,12.423529,3.032,249.75674
1776328808641,4.7200503,13.675051,9.9199505,16.806427,-0.226325,0.0253,-0.066275,-6.8765089,109.4851407,30.5,12.423529,3.032,249.75674
1776328808641,-5.1199503,12.894001,6.8640003,15.744078,0.1728375,-0.1513875,-0.163075,-6.8765089,109.4851407,30.5,12.423529,3.032,249.75674
1776328808645,-1.1340001,12.766951,-4.45695,14.004829,0.1728375,-0.1513875,-0.163075,-6.8765089,109.4851407,30.5,12.423529,3.032,249.75674
1776328808650,3.0940502,16.86195,-6.60195,17.497562,0.217525,-0.1375,0.0210375,-6.8765089,109.4851407,30.5,12.423529,3.032,249.75674
1776328808655,-3.93405,14.533951,-6.8920503,16.74701,0.11,0.22,-0.051425,-6.8765089,109.4851407,30.5,12.423529,3.032,249.75674
1776328808660,4.347,1.608,11.302051,13.121801,-1.08515,0.0380875,0.0518375,-6.8765089,109.4851407,30.5,12.423529,3.032,249.75674
1776328808665,1.6669501,-2.3779502,26.64405,24.065836,-1.08515,0.0380875,0.0518375,-6.8765089,109.4851407,30.5,12.423529,3.032,249.75674
1776328808675,-11.60805,7.28205,23.125952,26.317917,0.09295,0.376475,-0.2387,-6.8765089,109.4851407,30.5,12.423529,3.032,249.75674
1776328808676,-7.7899504,10.55595,4.20795,16.285547,0.414425,-0.4855125,0.20405,-6.8765089,109.4851407,30.5,12.423529,3.032,249.75674
1776328808681,7.3020005,6.681,-3.1939502,11.576967,0.414425,-0.4855125,0.20405,-6.8765089,109.4851407,30.5,12.423529,3.032,249.75674
1776328808687,-0.105000004,4.67205,-8.406,10.009543,0.3504875,0.2316875,0.2008875,-6.8765089,109.4851407,30.5,12.423529,3.032,249.75674
1776328808690,3.1249502,8.487,-4.8180003,10.199766,-0.0633875,0.1519375,0.1274625,-6.8765089,109.4851407,30.5,12.423529,3.032,249.75674
1776328808696,4.41405,7.4760003,-0.33495003,8.990596,-0.0633875,0.1519375,0.1274625,-6.8765089,109.4851407,30.5,12.423529,3.032,249.75674
1776328808701,-3.04605,13.576051,9.771001,15.399532,-0.0633875,0.1519375,0.1274625,-6.8765089,109.4851407,30.5,12.423529,3.032,249.75674
1776328808706,1.30305,13.52595,8.136001,15.750346,-0.0017875,0.164725,0.1571625,-6.8765089,109.4851407,30.5,12.423529,3.032,249.75674
1776328808711,11.75205,9.471001,-7.86495,16.765778,0.346225,-0.262075,0.1986875,-6.8765089,109.4851407,30.5,12.423529,3.032,249.75674
1776328808719,7.7689505,9.912001,-6.9330006,14.853996,0.1546875,-0.0939125,0.0614625,-6.8765089,109.4851407,30.5,12.423529,3.032,249.75674
1776328808730,-6.0349503,17.727001,-0.63900006,17.960407,-0.373175,-0.210925,0.0273625,-6.8765089,109.4851407,30.5,12.423529,3.032,249.75674
1776328808730,-7.0290003,9.567,-2.57205,13.309687,-0.373175,-0.210925,0.0273625,-6.8765089,109.4851407,30.5,12.423529,3.032,249.75674
1776328808732,1.41495,8.06295,-0.82095003,9.243716,-0.373175,-0.210925,0.0273625,-6.8765089,109.4851407,30.5,12.423529,3.032,249.75674
1776328808740,-0.52095,7.3180504,6.2119503,9.539302,-0.19965,0.0688875,0.0347875,-6.8765089,109.4851407,30.5,12.423529,3.032,249.75674
1776328808741,-1.383,7.5649505,7.7089505,10.619015,-0.2443375,0.1678875,0.1412125,-6.8765089,109.4851407,30.5,12.423529,3.032,249.75674
1776328808746,9.453,3.0889502,3.42,10.537021,-0.16885,-0.4302375,0.065725,-6.8765089,109.4851407,30.5,12.423529,3.032,249.75674
1776328808760,3.7530003,4.7650504,-0.16905001,6.9617167,0.002475,0.114675,0.039049998,-6.8765089,109.4851407,30.5,12.423529,3.032,249.75674
1776328808760,-6.7840505,12.357,5.1660004,13.403175,-0.0804375,0.20515,-0.073699996,-6.8765089,109.4851407,30.5,12.423529,3.032,249.75674
1776328808762,-5.7850504,7.89795,5.13705,11.525384,-0.0804375,0.20515,-0.073699996,-6.8765089,109.4851407,30.5,12.423529,3.032,249.75674
1776328808767,0.57705003,11.814,15.937951,18.18305,-0.3007125,-0.213125,-0.0067375,-6.8765089,109.4851407,30.5,12.423529,3.032,249.75674
1776328808771,-1.7040001,8.08695,4.66995,11.230747,0.06215,0.121,0.2211,-6.8765089,109.4851407,30.5,12.423529,3.032,249.75674
1776328808776,12.67905,8.370001,-6.31995,15.409906,0.429275,-0.2800875,0.2721125,-6.8765089,109.4851407,30.5,12.423529,3.032,249.75674
1776328808782,10.01595,14.022,-8.7630005,18.547575,0.1632125,-0.2706,-0.02585,-6.8765089,109.4851407,30.5,12.423529,3.032,249.75674
1776328808799,-7.5270004,20.103,-2.979,21.046843,0.2941125,0.49885,-0.2919125,-6.8765089,109.4851407,30.5,12.423529,3.032,249.75674
1776328808800,-6.6480002,12.772051,2.7630002,15.938454,-0.6518875,-0.2737625,0.114675,-6.8765089,109.4851407,30.5,12.423529,3.032,249.75674
1776328808800,8.587951,2.9520001,4.53795,11.309176,-0.6518875,-0.2737625,0.114675,-6.8765089,109.4851407,30.5,12.423529,3.032,249.75674
1776328808807,7.314,3.2659502,-6.1860003,10.358357,0.020624999,-0.1120625,0.1764125,-6.8765089,109.4851407,30.5,12.423529,3.032,249.75674
1776328808812,0.112050004,11.679001,-4.7080503,12.145872,0.4048,0.326425,-0.16733749,-6.8765089,109.4851407,30.5,12.423529,3.032,249.75674
1776328808831,-5.74695,8.155951,6.55695,11.980403,-0.550825,-0.1992375,-0.4217125,-6.8765089,109.4851407,30.5,12.423529,3.032,249.75674
1776328808831,-9.900001,1.8100501,22.126951,21.842634,-0.5977125,0.088,-0.311025,-6.8765089,109.4851407,30.5,12.423529,3.032,249.75674
1776328808834,-7.35405,7.3039503,12.624001,17.43562,0.19525,-0.4621375,0.2189,-6.8765089,109.4851407,30.5,12.423529,3.032,249.75674
1776328808834,8.3539505,5.9700003,-11.071951,15.567324,0.19525,-0.4621375,0.2189,-6.8765089,109.4851407,30.5,12.423529,3.032,249.75674
1776328808836,13.090951,9.759001,-4.98105,16.770332,0.19525,-0.4621375,0.2189,-6.8765089,109.4851407,30.5,12.423529,3.032,249.75674
1776328808842,-3.59205,12.172951,7.2780004,15.058503,-0.1219625,0.3647875,-0.15565,-6.8765089,109.4851407,30.5,12.423529,3.032,249.75674
1776328808847,-5.6800504,6.3510003,9.68505,13.331341,-0.2380125,0.1860375,-0.1769625,-6.8765089,109.4851407,30.5,12.423529,3.032,249.75674
1776328808865,3.3030002,7.596,7.1029506,11.395473,-0.270875,-0.2726625,-0.018424999,-6.8765089,109.4851407,30.5,12.423529,3.032,249.75674
1776328808866,-0.73005,14.28495,-9.706051,16.107765,-0.1879625,-0.3386625,0.1007875,-6.8765089,109.4851407,30.5,12.423529,3.032,249.75674
1776328808866,4.4040003,19.63095,-24.850052,28.800226,-0.1879625,-0.3386625,0.1007875,-6.8765089,109.4851407,30.5,12.423529,3.032,249.75674
1776328808869,15.00195,11.107051,-17.10495,26.014498,-0.1879625,-0.3386625,0.1007875,-6.8765089,109.4851407,30.5,12.423529,3.032,249.75674
1776328808875,1.07505,1.8049501,8.455951,12.173313,-1.091475,0.2072125,8.25E-4,-6.8765089,109.4851407,30.5,12.423529,3.032,249.75674
1776328808878,-11.349001,5.6130004,33.87495,31.365671,-1.091475,0.2072125,8.25E-4,-6.8765089,109.4851407,30.5,12.423529,3.032,249.75674
1776328808882,-8.57295,4.5349503,20.320951,24.286505,-0.42625,-0.048125,-0.247225,-6.8765089,109.4851407,30.5,12.423529,3.032,249.75674
1776328808897,0.74505,11.710951,6.8280005,15.718552,0.2292125,0.0273625,0.088,-6.8765089,109.4851407,30.5,12.423529,3.032,249.75674
1776328808898,-3.0529501,15.399001,0.21495001,15.703862,0.2292125,0.0273625,0.088,-6.8765089,109.4851407,30.5,12.423529,3.032,249.75674
1776328808900,2.02605,5.53095,-5.56995,9.626233,0.2292125,0.0273625,0.088,-6.8765089,109.4851407,30.5,12.423529,3.032,249.75674
1776328808902,8.93595,8.619,11.44095,15.431599,0.2292125,0.0273625,0.088,-6.8765089,109.4851407,30.5,12.423529,3.032,249.75674
1776328808906,-8.77005,11.737051,1.5850501,14.876066,0.348425,0.555225,-0.1343375,-6.8765089,109.4851407,30.5,12.423529,3.032,249.75674
1776328808907,3.1060503,14.098051,1.7580001,14.609457,0.29947498,-0.1087625,0.097625,-6.8765089,109.4851407,30.5,12.423529,3.032,249.75674
1776328808916,11.224951,9.96195,-2.01405,15.035919,-0.20075,-0.4334,0.130625,-6.8765089,109.4851407,30.5,12.423529,3.032,249.75674
1776328808930,5.2330503,9.523951,-3.04605,12.0358095,-0.4114,-0.12265,-0.4026,-6.8765089,109.4851407,30.5,12.423529,3.032,249.75674
1776328808931,-4.8370504,10.161,1.9249501,11.540781,-0.4114,-0.12265,-0.4026,-6.8765089,109.4851407,30.5,12.423529,3.032,249.75674
1776328808936,-4.1950502,8.889001,12.69795,15.15434,-0.4114,-0.12265,-0.4026,-6.8765089,109.4851407,30.5,12.423529,3.032,249.75674
1776328808942,-10.96605,8.247001,16.863,20.422878,-0.1475375,0.3892625,0.086899996,-6.8765089,109.4851407,30.5,12.423529,3.032,249.75674
1776328808945,-5.0790005,11.646001,5.4240003,15.136319,0.3867875,-0.12375,-0.05775,-6.8765089,109.4851407,30.5,12.423529,3.032,249.75674
1776328808947,15.0070505,3.4429502,-4.0300503,15.759755,0.1302125,-0.554675,0.46475,-6.8765089,109.4851407,30.5,12.423529,3.032,249.75674
1776328808959,6.9859505,4.7580004,-4.84905,10.947555,0.2536875,-0.02365,0.13915,-6.8765089,109.4851407,30.5,12.423529,3.032,249.75674
1776328808960,-4.64295,15.696001,7.0000505,16.431356,0.1249875,0.3317875,-0.246125,-6.8765089,109.4851407,30.5,12.423529,3.032,249.75674
1776328808967,-4.914,10.489051,-6.741,14.007725,0.3037375,-0.15565,-0.067375,-6.8765089,109.4851407,30.5,12.423529,3.032,249.75674
1776328808981,6.6319504,6.7630506,-1.22595,10.442469,0.3037375,-0.15565,-0.067375,-6.8765089,109.4851407,30.5,12.423529,3.032,249.75674
1776328808982,0.67005,7.905,-2.9209502,8.8516865,-0.4103,-0.1205875,-0.165275,-6.8765089,109.4851407,30.5,12.423529,3.032,249.75674
1776328808982,3.6190503,10.38105,-4.91895,11.405599,-0.4103,-0.1205875,-0.165275,-6.8765089,109.4851407,30.5,12.423529,3.032,249.75674
1776328808988,4.275,8.69295,1.0489501,10.076229,-0.4103,-0.1205875,-0.165275,-6.8765089,109.4851407,30.5,12.423529,3.032,249.75674
1776328808990,-4.51905,6.2070003,11.75205,13.245474,-0.159225,0.56485,-0.035475,-6.8765089,109.4851407,30.5,12.423529,3.032,249.75674
1776328808995,-6.2050505,9.819,10.13805,14.982995,0.1579875,-0.128975,-0.065175,-6.8765089,109.4851407,30.5,12.423529,3.032,249.75674
1776328809001,3.01305,11.086051,-8.85105,14.598533,0.4324375,-0.2726625,0.1018875,-6.8765089,109.4851407,30.5,12.423529,3.032,249.75674
1776328809011,5.9989505,13.18605,-4.84695,15.140405,-0.0506,0.113575,0.0763125,-6.8765089,109.4851407,30.5,12.423529,3.032,249.75674
1776328809011,-3.7110002,13.123951,8.418,15.849871,-0.0506,0.113575,0.0763125,-6.8765089,109.4851407,30.5,12.423529,3.032,249.75674
1776328809021,5.10405,2.36505,6.8089504,10.235682,-0.158125,0.087037496,0.24447499,-6.8765089,109.4851407,30.5,12.423529,3.032,249.75674
1776328809021,9.592051,9.094951,1.11105,12.659129,-0.158125,0.087037496,0.24447499,-6.8765089,109.4851407,30.5,12.423529,3.032,249.75674
1776328809029,-6.6049504,20.400002,0.78000003,19.697258,0.46873748,0.56485,-0.2355375,-6.8765089,109.4851407,30.5,12.423529,3.032,249.75674
1776328809030,-7.4809504,14.407051,4.296,17.37334,0.46873748,0.56485,-0.2355375,-6.8765089,109.4851407,30.5,12.423529,3.032,249.75674
1776328809034,6.42105,8.367001,12.5779505,16.606405,0.46873748,0.56485,-0.2355375,-6.8765089,109.4851407,30.5,12.423529,3.032,249.75674
1776328809036,2.457,8.283,-2.1049502,10.4352455,0.3218875,-0.2641375,-0.0972125,-6.8765089,109.4851407,30.5,12.423529,3.032,249.75674
1776328809047,3.15405,11.767951,-15.220051,17.683617,0.3218875,-0.2641375,-0.0972125,-6.8765089,109.4851407,30.5,12.423529,3.032,249.75674
1776328809054,6.7830005,11.530951,-3.5490003,14.60935,-0.4657125,-0.056649998,-0.1376375,-6.8765089,109.4851407,30.5,12.423529,3.032,249.75674
1776328809055,-7.7640004,12.910951,8.79405,16.877403,-0.141075,0.5819,-0.163075,-6.8765089,109.4851407,30.5,12.423529,3.032,249.75674
1776328809065,-5.7450004,9.411,12.53295,16.729654,-0.141075,0.5819,-0.163075,-6.8765089,109.4851407,30.5,12.423529,3.032,249.75674
1776328809065,12.589951,5.41695,6.6580505,15.535891,0.1654125,0.426525,-0.1397,-6.8765089,109.4851407,30.5,12.423529,3.032,249.75674
1776328809066,4.7779503,3.7110002,5.33295,9.559004,0.1654125,0.426525,-0.1397,-6.8765089,109.4851407,30.5,12.423529,3.032,249.75674
1776328809076,-10.18305,11.76105,12.372001,17.813162,0.0334125,0.050875,-0.428175,-6.8765089,109.4851407,30.5,12.423529,3.032,249.75674
1776328809081,-4.8250504,5.9989505,2.4520502,10.026368,0.463375,-0.1769625,0.016775,-6.8765089,109.4851407,30.5,12.423529,3.032,249.75674
1776328809088,0.97200006,10.06305,-7.6060505,12.126515,0.463375,-0.1769625,0.016775,-6.8765089,109.4851407,30.5,12.423529,3.032,249.75674
1776328809088,-0.651,17.563951,-9.0720005,18.248676,0.463375,-0.1769625,0.016775,-6.8765089,109.4851407,30.5,12.423529,3.032,249.75674
1776328809098,7.9129505,12.046051,-2.9170501,15.413581,-0.4475625,-0.1610125,0.2083125,-6.8765089,109.4851407,30.5,12.423529,3.032,249.75674
1776328809098,8.851951,1.848,17.83995,19.083435,-0.4475625,-0.1610125,0.2083125,-6.8765089,109.4851407,30.5,12.423529,3.032,249.75674
1776328809102,-2.025,4.59,28.311,26.818342,-0.0070125,0.187,-0.2184875,-6.8765089,109.4851407,30.5,12.423529,3.032,249.75674
1776328809110,-6.576,10.386001,9.58395,17.833534,0.854975,0.1775125,-0.19607499,-6.8765089,109.4851407,30.5,12.423529,3.032,249.75674
1776328809113,-0.957,15.5140505,-8.298,17.662573,0.6655,-0.45045,-0.1067,-6.8765089,109.4851407,30.5,12.423529,3.032,249.75674
1776328809122,-0.30600002,20.493,-5.85795,20.585323,0.6655,-0.45045,-0.1067,-6.8765089,109.4851407,30.5,12.423529,3.032,249.75674
1776328809132,-3.7519503,12.790951,-10.20705,17.548239,-0.0209,-0.1854875,0.111375,-6.8765089,109.4851407,30.5,12.423529,3.032,249.75674
1776328809132,14.611951,5.8690505,0.531,16.114075,-0.0209,-0.1854875,0.111375,-6.8765089,109.4851407,30.5,12.423529,3.032,249.75674
1776328809141,7.7770505,4.2840004,3.2929502,10.798722,-0.7178875,-0.5292375,0.2519,-6.8765089,109.4851407,30.5,12.423529,3.032,249.75674
1776328809141,-5.95305,16.383001,9.616051,18.085773,-0.7178875,-0.5292375,0.2519,-6.8765089,109.4851407,30.5,12.423529,3.032,249.75674
1776328809141,-1.314,11.80395,-0.01905,13.118657,-0.7178875,-0.5292375,0.2519,-6.8765089,109.4851407,30.5,12.423529,3.032,249.75674
1776328809145,9.673051,7.9219503,-3.21795,12.952113,-0.00275,-0.3568125,0.1326875,-6.8765089,109.4851407,30.5,12.423529,3.032,249.75674
1776328809155,-1.9099501,11.787001,-4.4610004,12.787891,0.283525,0.2231625,-0.12595,-6.8765089,109.4851407,30.5,12.423529,3.032,249.75674
1776328809166,-4.66905,9.330001,0.61800003,10.918665,0.283525,0.2231625,-0.12595,-6.8765089,109.4851407,30.5,12.423529,3.032,249.75674
1776328809167,-2.5519502,5.3419504,13.981951,14.330669,0.283525,0.2231625,-0.12595,-6.8765089,109.4851407,30.5,12.423529,3.032,249.75674
1776328809167,-8.05095,9.61695,16.662,19.550034,0.283525,0.2231625,-0.12595,-6.8765089,109.4851407,30.5,12.423529,3.032,249.75674
1776328809175,3.4390502,10.425,-4.58295,13.426682,0.5368,-0.180125,0.196625,-6.8765089,109.4851407,30.5,12.423529,3.032,249.75674
1776328809180,17.733002,7.05705,-14.403001,21.813665,0.473,-0.4387625,0.2305875,-6.8765089,109.4851407,30.5,12.423529,3.032,249.75674
1776328809194,3.5640001,9.523951,-0.62895006,12.513447,-0.2209625,-0.13653749,-0.1291125,-6.8765089,109.4851407,30.5,12.423529,3.032,249.75674
1776328809194,-12.28995,11.55,9.39795,17.948425,-0.010175,0.7745375,-0.3727625,-6.8765089,109.4851407,30.5,12.423529,3.032,249.75674
1776328809195,-4.9230003,6.1660504,6.7579503,11.9006815,-0.2209625,-0.047025,-0.215325,-6.8765089,109.4851407,30.5,12.423529,3.032,249.75674
1776328809200,1.8390001,5.7709503,4.68195,8.504524,-0.2187625,-0.3152875,0.048675,-6.8765089,109.4851407,30.5,12.423529,3.032,249.75674
1776328809204,-1.47405,12.915001,2.7900002,12.336819,0.42185,0.2327875,0.115637496,-6.8765089,109.4851407,30.5,12.423529,3.032,249.75674
1776328809205,2.93895,10.73295,-5.8099504,12.510126,-0.0059125,-0.4035625,-0.018424999,-6.8765089,109.4851407,30.5,12.423529,3.032,249.75674
1776328809209,10.04205,9.46395,6.2509503,14.6209955,-0.4125,-0.5292375,0.048675,-6.8765089,109.4851407,30.5,12.423529,3.032,249.75674
1776328809214,-7.1269503,10.38105,9.802051,15.69015,-0.00275,0.5489,-0.0950125,-6.8765089,109.4851407,30.5,12.423529,3.032,249.75674
1776328809227,-3.7759502,12.592051,5.3910003,14.504801,0.19525,0.0699875,-0.13859999,-6.8765089,109.4851407,30.5,12.423529,3.032,249.75674
1776328809228,7.3690505,10.935,-3.561,13.827855,0.3185875,-0.0694375,0.10395,-6.8765089,109.4851407,30.5,12.423529,3.032,249.75674
1776328809230,2.59605,14.917951,-5.2519503,15.587244,0.3185875,-0.0694375,0.10395,-6.8765089,109.4851407,30.5,12.423529,3.032,249.75674
1776328809234,1.35105,13.6699505,-5.118,14.844664,0.3399,0.3328875,0.0125124995,-6.8765089,109.4851407,30.5,12.423529,3.032,249.75674
1776328809239,8.998051,8.50605,-0.033,12.874694,-0.502975,-0.4675,-0.073699996,-6.8765089,109.4851407,30.5,12.423529,3.032,249.75674
1776328809245,-2.9209502,7.9339504,10.626,13.438204,0.118525,0.4307875,-0.279125,-6.8765089,109.4851407,30.5,12.423529,3.032,249.75674
1776328809250,-12.1039505,13.33005,9.628051,19.02205,0.118525,0.4307875,-0.279125,-6.8765089,109.4851407,30.5,12.423529,3.032,249.75674
1776328809260,2.4019501,8.2879505,4.17705,11.473871,-0.0847,-0.3323375,-0.0034375,-6.8765089,109.4851407,30.5,12.423529,3.032,249.75674
1776328809260,4.4160004,7.3009505,4.2840004,9.932894,-0.0847,-0.3323375,-0.0034375,-6.8765089,109.4851407,30.5,12.423529,3.032,249.75674
1776328809266,-1.6279501,10.28295,7.8739505,12.429212,0.202675,0.2402125,0.041249998,-6.8765089,109.4851407,30.5,12.423529,3.032,249.75674
1776328809270,-0.21195,6.1729503,-0.021000002,7.427141,0.044,0.0061875,-0.1291125,-6.8765089,109.4851407,30.5,12.423529,3.032,249.75674
1776328809275,2.4139502,10.1970005,14.571001,15.843592,-0.31033748,-0.3876125,-0.0642125,-6.8765089,109.4851407,30.5,12.423529,3.032,249.75674
1776328809280,-13.677001,11.646001,5.61105,18.22432,0.4059,0.6414375,-0.0768625,-6.8765089,109.4851407,30.5,12.423529,3.032,249.75674
1776328809292,6.97905,10.741051,-5.0719504,14.666356,0.4261125,-0.4291375,0.1189375,-6.8765089,109.4851407,30.5,12.423529,3.032,249.75674
1776328809293,15.814051,5.9269505,-12.331051,19.66203,0.005775,-0.5418875,0.34347498,-6.8765089,109.4851407,30.5,12.423529,3.032,249.75674
1776328809296,2.84505,10.639951,-7.2370505,14.475355,0.39627498,0.20405,-0.1194875,-6.8765089,109.4851407,30.5,12.423529,3.032,249.75674
1776328809300,-4.65705,12.396001,2.8930502,13.738501,-0.2699125,-0.212025,-0.3653375,-6.8765089,109.4851407,30.5,12.423529,3.032,249.75674
1776328809307,-2.9209502,7.5100503,3.2070003,9.685949,-0.2699125,-0.212025,-0.3653375,-6.8765089,109.4851407,30.5,12.423529,3.032,249.75674
1776328809310,-3.4620001,7.08795,6.2530503,9.990021,-0.13475,0.2008875,0.1189375,-6.8765089,109.4851407,30.5,12.423529,3.032,249.75674
1776328809316,-3.4069502,13.057051,-3.07905,13.070837,0.3697375,-0.130075,-0.0801625,-6.8765089,109.4851407,30.5,12.423529,3.032,249.75674
1776328809327,8.986051,7.3999505,-3.8479502,12.422412,-0.0314875,-0.3493875,0.195525,-6.8765089,109.4851407,30.5,12.423529,3.032,249.75674
1776328809328,5.484,6.63105,7.83405,11.794003,-0.2369125,0.30415,-0.1419,-6.8765089,109.4851407,30.5,12.423529,3.032,249.75674
1776328809331,-6.36705,10.28295,14.451,17.434286,-0.2369125,0.30415,-0.1419,-6.8765089,109.4851407,30.5,12.423529,3.032,249.75674
1776328809336,-3.1729503,9.65295,0.69900006,11.634914,0.2484625,8.25E-4,-0.1749,-6.8765089,109.4851407,30.5,12.423529,3.032,249.75674
1776328809341,4.0620003,11.06595,4.29405,12.3635235,0.0100375,-0.247225,0.0507375,-6.8765089,109.4851407,30.5,12.423529,3.032,249.75674
1776328809346,-5.0929503,12.829051,0.72300005,13.53024,0.1494625,0.2391125,0.062425,-6.8765089,109.4851407,30.5,12.423529,3.032,249.75674
1776328809360,6.3829503,9.663,-5.0820003,12.823513,0.23773749,-0.1205875,0.112475,-6.8765089,109.4851407,30.5,12.423529,3.032,249.75674
1776328809363,10.83495,6.98505,-4.45695,13.476758,-0.1060125,0.211475,-0.2322375,-6.8765089,109.4851407,30.5,12.423529,3.032,249.75674
1776328809364,-6.018,10.753051,4.842,13.287104,-0.1060125,0.211475,-0.2322375,-6.8765089,109.4851407,30.5,12.423529,3.032,249.75674
1776328809366,-9.2029505,13.057051,11.788051,18.53977,-0.0867625,0.423225,-0.1098625,-6.8765089,109.4851407,30.5,12.423529,3.032,249.75674
1776328809382,4.28895,9.117001,0.024,11.768341,-0.1049125,-0.4015,0.0231,-6.8765089,109.4851407,30.5,12.423529,3.032,249.75674
1776328809382,9.634951,6.66195,-7.8889503,13.651793,-0.1049125,-0.4015,0.0231,-6.8765089,109.4851407,30.5,12.423529,3.032,249.75674
1776328809382,4.41405,10.69995,-6.37305,13.300915,-0.1049125,-0.4015,0.0231,-6.8765089,109.4851407,30.5,12.423529,3.032,249.75674
1776328809389,0.8880001,6.2089505,2.6920502,8.120543,-0.2454375,0.1775125,-0.1769625,-6.8765089,109.4851407,30.5,12.423529,3.032,249.75674
1776328809391,-6.6190505,10.903951,15.265051,17.538475,-0.5369375,0.0688875,-0.2322375,-6.8765089,109.4851407,30.5,12.423529,3.032,249.75674
1776328809396,-9.049951,12.472051,4.66305,16.387388,0.1739375,0.311575,-0.09295,-6.8765089,109.4851407,30.5,12.423529,3.032,249.75674
1776328809401,7.6969504,6.19005,-9.59595,14.294325,0.350625,-0.3004375,0.194425,-6.8765089,109.4851407,30.5,12.423529,3.032,249.75674
1776328809407,10.82505,4.45905,-1.8840001,12.345337,-0.4219875,-0.5344625,0.161425,-6.8765089,109.4851407,30.5,12.423529,3.032,249.75674
1776328809412,-4.0230002,9.684,6.61005,12.38575,-0.0059125,0.52442497,-0.1535875,-6.8765089,109.4851407,30.5,12.423529,3.032,249.75674
1776328809416,-6.5449505,10.425,2.9530501,12.603946,-0.0548625,0.0922625,-0.2110625,-6.8765089,109.4851407,30.5,12.423529,3.032,249.75674
1776328809428,2.8570502,5.9550004,-0.53295004,7.8218865,-0.172975,-0.2173875,-0.0779625,-6.8765089,109.4851407,30.5,12.423529,3.032,249.75674
1776328809428,-1.2420001,8.029051,0.26505002,8.067471,0.078099996,0.2008875,-0.0364375,-6.8765089,109.4851407,30.5,12.423529,3.032,249.75674
1776328809431,-3.8359501,11.502001,1.1560501,11.357317,0.078099996,0.2008875,-0.0364375,-6.8765089,109.4851407,30.5,12.423529,3.032,249.75674
1776328809436,7.6450505,6.9900002,3.4390502,11.003344,-0.3975125,-0.456775,0.0581625,-6.8765089,109.4851407,30.5,12.423529,3.032,249.75674
1776328809446,1.9519501,4.08495,9.184951,10.392773,-0.3337125,0.1573,0.1274625,-6.8765089,109.4851407,30.5,12.423529,3.032,249.75674
1776328809449,-5.295,13.416,11.742001,16.95728,0.021724999,0.195525,-0.1749,-6.8765089,109.4851407,30.5,12.423529,3.032,249.75674
1776328809453,-2.0040002,9.816001,-2.67195,11.686388,0.169675,-0.064075,-0.0779625,-6.8765089,109.4851407,30.5,12.423529,3.032,249.75674
1776328809457,3.798,14.86995,5.6929502,15.432617,-0.0155375,-0.3961375,0.0752125,-6.8765089,109.4851407,30.5,12.423529,3.032,249.75674
1776328809462,-4.6650004,12.316951,-1.3789501,13.680742,-0.011275,-0.23333749,0.1656875,-6.8765089,109.4851407,30.5,12.423529,3.032,249.75674
1776328809467,9.024,6.91305,-2.94495,12.130465,-0.011275,-0.23333749,0.1656875,-6.8765089,109.4851407,30.5,12.423529,3.032,249.75674
1776328809475,7.0360503,10.044001,9.901051,15.035138,-0.5198875,-0.3568125,0.0114124995,-6.8765089,109.4851407,30.5,12.423529,3.032,249.75674
1776328809477,-13.059001,14.497951,13.660951,22.06231,0.0994125,0.6425375,-0.214225,-6.8765089,109.4851407,30.5,12.423529,3.032,249.75674
1776328809483,-5.151,12.42405,10.408051,18.017574,0.0749375,0.0603625,-0.0407,-6.8765089,109.4851407,30.5,12.423529,3.032,249.75674
1776328809487,9.20205,8.793,5.6779504,14.752935,-0.2102375,-0.606925,0.187,-6.8765089,109.4851407,30.5,12.423529,3.032,249.75674
1776328809492,2.26095,8.41005,-5.5609503,11.216761,0.528275,0.2105125,0.2402125,-6.8765089,109.4851407,30.5,12.423529,3.032,249.75674
1776328809497,1.8970501,9.64395,-1.6210501,10.212588,-0.62425,-0.36107498,-0.1588125,-6.8765089,109.4851407,30.5,12.423529,3.032,249.75674
1776328809502,0.89100003,11.457001,15.32295,17.365171,-0.62425,-0.36107498,-0.1588125,-6.8765089,109.4851407,30.5,12.423529,3.032,249.75674
1776328809512,-14.26395,9.76305,11.866951,20.246384,0.135575,-0.3557125,0.111375,-6.8765089,109.4851407,30.5,12.423529,3.032,249.75674
1776328809513,-0.54300004,12.673051,8.215051,16.13929,0.135575,-0.3557125,0.111375,-6.8765089,109.4851407,30.5,12.423529,3.032,249.75674
1776328809517,10.82505,2.3800502,-6.3079505,13.430183,0.1984125,-0.4228125,0.275275,-6.8765089,109.4851407,30.5,12.423529,3.032,249.75674
1776328809525,6.22695,7.2730503,0.8880001,10.378556,0.2409,-0.0939125,0.23375,-6.8765089,109.4851407,30.5,12.423529,3.032,249.75674
1776328809527,-5.5530005,15.0730505,0.00405,14.926429,0.35915,0.228525,-0.214225,-6.8765089,109.4851407,30.5,12.423529,3.032,249.75674
1776328809532,0.65595,7.977,-5.09805,10.5769825,0.1728375,-0.2481875,-0.100375,-6.8765089,109.4851407,30.5,12.423529,3.032,249.75674
1776328809538,-0.21495001,4.4560504,7.4770503,9.08086,-0.2506625,0.015675,0.145475,-6.8765089,109.4851407,30.5,12.423529,3.032,249.75674
1776328809542,-6.5400004,8.37705,7.0000505,11.996853,0.061049998,0.132825,-0.033275,-6.8765089,109.4851407,30.5,12.423529,3.032,249.75674
1776328809549,5.19,7.9819503,-8.677051,12.704752,0.464475,-0.1502875,0.2316875,-6.8765089,109.4851407,30.5,12.423529,3.032,249.75674
1776328809552,9.41895,6.56895,-9.79695,14.616657,0.1793,-0.51315,0.154,-6.8765089,109.4851407,30.5,12.423529,3.032,249.75674
1776328809559,-2.9569502,7.9290004,4.7710505,10.695097,-0.2134,0.2391125,-0.1439625,-6.8765089,109.4851407,30.5,12.423529,3.032,249.75674
1776328809563,-8.96595,9.07905,12.340951,16.340237,-0.2134,0.2391125,-0.1439625,-6.8765089,109.4851407,30.5,12.423529,3.032,249.75674
1776328809568,-1.1220001,7.73295,7.6180506,11.998393,0.39627498,-0.1918125,0.2795375,-6.8765089,109.4851407,30.5,12.423529,3.032,249.75674
1776328809572,3.897,14.604001,-0.40395,14.496002,0.39627498,-0.1918125,0.2795375,-6.8765089,109.4851407,30.5,12.423529,3.032,249.75674
1776328809578,4.1119504,11.29905,-15.00195,18.279919,0.610225,0.0103124995,0.2220625,-6.8765089,109.4851407,30.5,12.423529,3.032,249.75674
1776328809583,15.25905,6.8749504,-11.3880005,19.850601,-0.1379125,-0.3620375,0.177375,-6.8765089,109.4851407,30.5,12.423529,3.032,249.75674
1776328809596,1.9110001,10.627951,1.3620001,12.6772785,-0.028324999,-0.2811875,0.0891,-6.8765089,109.4851407,30.5,12.423529,3.032,249.75674
1776328809597,-12.25695,18.570002,-0.96495,20.352463,-0.028324999,-0.2811875,0.0891,-6.8765089,109.4851407,30.5,12.423529,3.032,249.75674
1776328809598,4.617,13.275001,-8.142,17.06488,-0.028324999,-0.2811875,0.0891,-6.8765089,109.4851407,30.5,12.423529,3.032,249.75674
1776328809603,9.5460005,7.4089503,-5.72805,14.11114,-0.4475625,-0.359975,0.2635875,-6.8765089,109.4851407,30.5,12.423529,3.032,249.75674
1776328809608,2.4810002,9.234,2.9929502,10.83741,-0.3146,0.2019875,0.0273625,-6.8765089,109.4851407,30.5,12.423529,3.032,249.75674
1776328809613,0.87900007,6.183,-0.81600004,7.2060843,-0.20075,0.294525,-0.015262499,-6.8765089,109.4851407,30.5,12.423529,3.032,249.75674
1776328809619,-0.076050006,10.116,7.149,11.35113,-0.48688748,-0.35035,-0.295075,-6.8765089,109.4851407,30.5,12.423529,3.032,249.75674
1776328809628,-13.2960005,8.437051,8.887951,16.735924,-0.0633875,-0.587675,0.309375,-6.8765089,109.4851407,30.5,12.423529,3.032,249.75674
1776328809628,-0.768,10.68795,-0.064050004,11.9197445,-0.0633875,-0.587675,0.309375,-6.8765089,109.4851407,30.5,12.423529,3.032,249.75674
1776328809633,13.098001,8.49705,-12.658951,18.46388,-0.0633875,-0.587675,0.309375,-6.8765089,109.4851407,30.5,12.423529,3.032,249.75674
1776328809638,6.24795,11.056951,-6.1810503,14.992289,-0.027224999,-0.049225,0.049775,-6.8765089,109.4851407,30.5,12.423529,3.032,249.75674
1776328809644,-5.71395,6.741,20.226002,20.656208,-0.7423625,0.472175,-0.117425,-6.8765089,109.4851407,30.5,12.423529,3.032,249.75674
1776328809649,-8.875051,0.47100002,31.29795,30.159534,-1.057375,0.20295,-0.293975,-6.8765089,109.4851407,30.5,12.423529,3.032,249.75674
1776328809654,-3.3450003,7.905,22.507952,25.303207,-0.2167,-0.1491875,0.03795,-6.8765089,109.4851407,30.5,12.423529,3.032,249.75674
1776328809660,-2.025,16.113,-11.071951,20.78461,1.279575,0.1667875,0.112475,-6.8765089,109.4851407,30.5,12.423529,3.032,249.75674
1776328809666,9.975,14.236951,-14.973001,22.511337,0.465575,-0.6505125,0.161425,-6.8765089,109.4851407,30.5,12.423529,3.032,249.75674
1776328809669,2.06205,8.70495,11.580001,16.208666,-0.6626125,0.2413125,0.07205,-6.8765089,109.4851407,30.5,12.423529,3.032,249.75674
1776328809674,-12.08205,6.8490005,25.423052,26.417118,-0.5561875,0.4477,-0.1408,-6.8765089,109.4851407,30.5,12.423529,3.032,249.75674
1776328809678,-3.1249502,7.6369505,11.3539505,16.511974,-0.0411125,0.07205,0.07205,-6.8765089,109.4851407,30.5,12.423529,3.032,249.75674
1776328809684,10.200001,16.174952,-2.9520001,18.781586,0.545325,-0.81014997,0.096525,-6.8765089,109.4851407,30.5,12.423529,3.032,249.75674
1776328809695,1.5490501,16.73805,-10.839001,19.757235,0.7932375,0.46048748,0.34347498,-6.8765089,109.4851407,30.5,12.423529,3.032,249.75674
1776328809695,5.18295,12.295051,-4.296,15.165348,-0.88605,-0.083325,0.0859375,-6.8765089,109.4851407,30.5,12.423529,3.032,249.75674
1776328809699,6.4759502,5.39505,12.559051,15.133298,-0.88605,-0.083325,0.0859375,-6.8765089,109.4851407,30.5,12.423529,3.032,249.75674
1776328809703,-11.96895,9.63405,14.69295,20.034018,0.0504625,0.39875,-0.180125,-6.8765089,109.4851407,30.5,12.423529,3.032,249.75674
1776328809708,-10.200001,13.275001,13.6699505,21.297415,0.1483625,0.2105125,-0.116325,-6.8765089,109.4851407,30.5,12.423529,3.032,249.75674
1776328809714,6.53595,8.073,2.2339501,12.759176,0.0749375,-0.6611,0.1890625,-6.8765089,109.4851407,30.5,12.423529,3.032,249.75674
1776328809720,8.52105,6.8700004,-5.295,12.279066,0.5751625,0.2594625,0.538175,-6.8765089,109.4851407,30.5,12.423529,3.032,249.75674
1776328809728,7.8460503,9.459001,-19.684052,21.02021,0.5473875,-0.3961375,0.0199375,-6.8765089,109.4851407,30.5,12.423529,3.032,249.75674
1776328809729,12.49905,6.597,-11.938951,19.004803,0.0100375,-0.115225,0.014575,-6.8765089,109.4851407,30.5,12.423529,3.032,249.75674
1776328809735,-10.530001,6.0319505,8.622001,15.710063,-0.4444,0.53185,-0.3141875,-6.8765089,109.4851407,30.5,12.423529,3.032,249.75674
1776328809744,-14.958001,8.889001,27.844051,29.40892,-0.56787497,0.5020125,-0.2728,-6.8765089,109.4851407,30.5,12.423529,3.032,249.75674
1776328809750,2.40405,1.82895,4.083,9.944919,-0.011275,-0.19607499,0.154,-6.8765089,109.4851407,30.5,12.423529,3.032,249.75674
1776328809756,10.677,3.7999501,-2.184,11.2222395,0.38885,-0.4653,0.3157,-6.8765089,109.4851407,30.5,12.423529,3.032,249.75674
1776328809759,-6.46605,12.754951,5.6590505,14.547902,0.3282125,0.3573625,-0.117425,-6.8765089,109.4851407,30.5,12.423529,3.032,249.75674
1776328809765,-9.505051,10.471951,5.8549504,15.15476,0.078099996,-0.0056375,-0.2503875,-6.8765089,109.4851407,30.5,12.423529,3.032,249.75674
1776328809766,-0.15195,6.7860003,2.32995,8.7721195,-0.009075,-0.2184875,0.1582625,-6.8765089,109.4851407,30.5,12.423529,3.032,249.75674
1776328809776,5.2039504,12.49905,-10.863001,15.6411,0.6166875,-0.163075,0.245575,-6.8765089,109.4851407,30.5,12.423529,3.032,249.75674
1776328809779,12.03705,11.767951,-29.523,30.316252,0.775225,-0.2717,0.4115375,-6.8765089,109.4851407,30.5,12.423529,3.032,249.75674
1776328809786,17.35905,11.78205,-20.20605,29.365616,-0.7475875,0.375375,-0.148225,-6.8765089,109.4851407,30.5,12.423529,3.032,249.75674
1776328809790,1.07505,6.9229503,-0.65595,11.502375,-0.7475875,0.375375,-0.148225,-6.8765089,109.4851407,30.5,12.423529,3.032,249.75674
1776328809795,-14.154,8.98995,15.4140005,20.521276,-0.5710375,0.784025,-0.359975,-6.8765089,109.4851407,30.5,12.423529,3.032,249.75674
1776328809800,-9.59595,6.54195,16.885052,20.499071,-0.64762497,0.0603625,-0.3058,-6.8765089,109.4851407,30.5,12.423529,3.032,249.75674
1776328809804,0.28695002,9.49005,11.781,16.204304,-0.1590875,-0.2589125,0.1656875,-6.8765089,109.4851407,30.5,12.423529,3.032,249.75674
1776328809810,-3.28005,7.143,-6.6600003,11.482677,0.1005125,-0.4940375,0.1997875,-6.8765089,109.4851407,30.5,12.423529,3.032,249.75674
1776328809815,13.774051,8.406,-10.6050005,17.744022,0.1005125,-0.4940375,0.1997875,-6.8765089,109.4851407,30.5,12.423529,3.032,249.75674
1776328809816,8.236051,12.11505,-11.90295,18.649261,0.1005125,-0.4940375,0.1997875,-6.8765089,109.4851407,30.5,12.423529,3.032,249.75674
1776328809822,-8.78895,16.774052,2.64105,19.02617,-0.044275,0.7233875,-0.213125,-6.8765089,109.4851407,30.5,12.423529,3.032,249.75674
1776328809826,1.0350001,8.061001,14.67405,17.224712,-0.858275,0.0273625,0.0242,-6.8765089,109.4851407,30.5,12.423529,3.032,249.75674
1776328809829,12.255,-1.542,6.459,14.595734,-0.5550875,-0.0875875,0.326425,-6.8765089,109.4851407,30.5,12.423529,3.032,249.75674
1776328809834,7.4800506,11.32695,-7.1050506,15.175938,0.3304125,0.014575,0.0092124995,-6.8765089,109.4851407,30.5,12.423529,3.032,249.75674
1776328809844,-2.0680501,13.282051,-16.750051,20.216646,0.629475,0.2402125,-0.2844875,-6.8765089,109.4851407,30.5,12.423529,3.032,249.75674
1776328809844,-9.723001,11.91705,12.721951,20.011314,-0.7412625,0.122099996,-0.4057625,-6.8765089,109.4851407,30.5,12.423529,3.032,249.75674
1776328809851,-21.003,4.5019503,35.99895,37.538563,-1.283975,0.491425,-0.2440625,-6.8765089,109.4851407,30.5,12.423529,3.032,249.75674
1776328809857,-2.3800502,1.74705,16.58805,20.98671,-0.0793375,-0.0694375,0.3136375,-6.8765089,109.4851407,30.5,12.423529,3.032,249.75674
1776328809860,19.09995,4.6410003,-6.399,20.734219,0.45815,-0.867625,0.488125,-6.8765089,109.4851407,30.5,12.423529,3.032,249.75674
1776328809865,12.741,13.21695,-4.5810003,19.283691,0.5038,-0.2057,0.1252625,-6.8765089,109.4851407,30.5,12.423529,3.032,249.75674
1776328809870,-5.4139504,14.910001,2.538,16.708145,0.1579875,0.4445375,-0.2195875,-6.8765089,109.4851407,30.5,12.423529,3.032,249.75674
1776328809877,-2.4109502,8.96595,4.893,11.737529,-0.1931875,0.2179375,-0.3163875,-6.8765089,109.4851407,30.5,12.423529,3.032,249.75674
1776328809881,-0.14505,8.05305,6.9760504,10.8718405,-0.3964125,-0.1577125,0.016775,-6.8765089,109.4851407,30.5,12.423529,3.032,249.75674
1776328809887,-5.4139504,13.9480505,0.9889501,14.170021,-0.3964125,-0.1577125,0.016775,-6.8765089,109.4851407,30.5,12.423529,3.032,249.75674
1776328809902,6.66795,12.937051,-4.00395,14.910043,0.0856625,-0.25355,0.162525,-6.8765089,109.4851407,30.5,12.423529,3.032,249.75674
1776328809910,8.397,6.86595,-0.92100006,11.690593,-0.157025,-0.164175,0.065725,-6.8765089,109.4851407,30.5,12.423529,3.032,249.75674
1776328809910,-5.0550003,9.11205,15.871051,17.527016,-0.157025,-0.164175,0.065725,-6.8765089,109.4851407,30.5,12.423529,3.032,249.75674
1776328809914,-10.828951,4.08705,11.659051,16.648397,-0.0878625,0.5797,-0.2407625,-6.8765089,109.4851407,30.5,12.423529,3.032,249.75674
1776328809924,3.21195,11.01795,13.01895,17.213886,0.135575,-0.214225,0.16885,-6.8765089,109.4851407,30.5,12.423529,3.032,249.75674
1776328809928,-1.0699501,14.055,-9.07905,16.85601,0.9741875,-0.0694375,0.121,-6.8765089,109.4851407,30.5,12.423529,3.032,249.75674
1776328809933,9.333,6.7600503,-13.929001,17.833736,-0.1687125,-0.0853875,0.242275,-6.8765089,109.4851407,30.5,12.423529,3.032,249.75674
1776328809940,11.13405,3.4380002,3.7840502,13.368167,-0.78815,-0.326975,-0.2068,-6.8765089,109.4851407,30.5,12.423529,3.032,249.75674
1776328809945,-9.085951,7.1719503,15.640951,18.240383,0.20693749,1.0330375,-0.1716,-6.8765089,109.4851407,30.5,12.423529,3.032,249.75674
1776328809948,-10.49205,11.971951,1.8610501,16.469913,0.4442625,-0.2259125,-0.1408,-6.8765089,109.4851407,30.5,12.423529,3.032,249.75674
1776328809954,9.417001,8.941951,-6.0799503,14.765106,-0.175175,-0.5685625,0.2869625,-6.8765089,109.4851407,30.5,12.423529,3.032,249.75674
1776328809965,6.2389503,2.5500002,-9.42105,12.220018,0.3048375,0.40301248,0.0933625,-6.8765089,109.4851407,30.5,12.423529,3.032,249.75674
1776328809966,3.7840502,5.96295,-3.867,8.885345,-0.205975,-0.0631125,-0.067375,-6.8765089,109.4851407,30.5,12.423529,3.032,249.75674
1776328809971,1.69095,8.058001,-4.092,9.132509,-0.1505625,-0.1183875,-0.3493875,-6.8765089,109.4851407,30.5,12.423529,3.032,249.75674
1776328809975,-5.8650002,9.02595,4.617,11.196504,-0.2443375,0.3944875,-0.0961125,-6.8765089,109.4851407,30.5,12.423529,3.032,249.75674
1776328809983,-8.523001,11.790001,19.44,21.663975,-0.29645,0.196625,0.0039875,-6.8765089,109.4851407,30.5,12.423529,3.032,249.75674
1776328809987,0.93405,5.4360003,8.51595,12.449699,-0.073975,-0.4855125,0.162525,-6.8765089,109.4851407,30.5,12.423529,3.032,249.75674
1776328809994,10.32705,3.1320002,3.3409503,11.527438,0.1995125,-0.0705375,0.1167375,-6.8765089,109.4851407,30.5,12.423529,3.032,249.75674
1776328809995,-1.8649501,13.866001,-1.2040501,13.539544,0.5592125,0.080575,-0.279125,-6.8765089,109.4851407,30.5,12.423529,3.032,249.75674
1776328810003,-7.9120502,17.04195,-8.101951,19.077055,0.3474625,0.1029875,-0.1599125,-6.8765089,109.4851407,30.5,12.423529,3.032,249.75674
1776328810007,3.11805,13.200001,-9.85995,17.23017,-0.2506625,-0.4472875,0.1848,-6.8765089,109.4851407,30.5,12.423529,3.032,249.75674
1776328810013,5.8680005,11.766001,1.24695,14.011702,-0.236775,0.310475,0.20927499,-6.8765089,109.4851407,30.5,12.423529,3.032,249.75674
1776328810019,-1.02405,7.7920504,1.8870001,9.268276,-0.33055,0.041249998,-0.05775,-6.8765089,109.4851407,30.5,12.423529,3.032,249.75674
1776328810035,10.203,7.0140004,12.769951,16.083069,0.1101375,-0.3568125,0.26895,-6.8765089,109.4851407,30.5,12.423529,3.032,249.75674
1776328810036,-3.6319501,8.62605,8.587951,13.378589,0.1101375,-0.3568125,0.26895,-6.8765089,109.4851407,30.5,12.423529,3.032,249.75674
1776328810036,-12.738001,14.328001,6.1639504,18.78619,0.1101375,-0.3568125,0.26895,-6.8765089,109.4851407,30.5,12.423529,3.032,249.75674
1776328810040,1.7719501,6.59205,-7.00995,11.584752,0.1101375,-0.3568125,0.26895,-6.8765089,109.4851407,30.5,12.423529,3.032,249.75674
1776328810040,8.335051,9.27,-7.31895,13.88167,0.1101375,-0.3568125,0.26895,-6.8765089,109.4851407,30.5,12.423529,3.032,249.75674
1776328810045,-3.58905,13.984051,0.40695003,14.330743,-0.027224999,0.0028875,-0.05775,-6.8765089,109.4851407,30.5,12.423529,3.032,249.75674
1776328810046,4.227,5.21295,13.705951,15.074881,-0.027224999,0.0028875,-0.05775,-6.8765089,109.4851407,30.5,12.423529,3.032,249.75674
1776328810052,4.05,1.9960501,24.17505,22.689444,-0.8413625,-0.1705,0.1764125,-6.8765089,109.4851407,30.5,12.423529,3.032,249.75674
1776328810062,-7.11495,10.68795,8.96205,17.064293,0.4357375,0.2541,-0.230175,-6.8765089,109.4851407,30.5,12.423529,3.032,249.75674
1776328810062,3.10905,12.022051,-8.63805,15.514081,0.7891125,0.033825,0.0455125,-6.8765089,109.4851407,30.5,12.423529,3.032,249.75674
1776328810066,4.9120502,11.719951,-7.26105,14.811502,0.19525,-0.423775,0.014575,-6.8765089,109.4851407,30.5,12.423529,3.032,249.75674
1776328810067,-8.743051,10.410001,6.2190003,14.921833,-0.13255,0.3785375,-0.1291125,-6.8765089,109.4851407,30.5,12.423529,3.032,249.75674
1776328810075,-7.7370005,5.8669505,17.170052,18.764719,-0.36025,0.3562625,-0.02805,-6.8765089,109.4851407,30.5,12.423529,3.032,249.75674
1776328810082,1.00605,8.688001,22.920002,23.37856,-0.450725,-0.440825,0.1348875,-6.8765089,109.4851407,30.5,12.423529,3.032,249.75674
1776328810085,-0.39900002,11.529,6.6270003,15.318846,0.5762625,0.2754125,0.2487375,-6.8765089,109.4851407,30.5,12.423529,3.032,249.75674
1776328810088,13.219951,11.169001,-7.2420006,18.072252,0.7528125,-0.3482875,0.3295875,-6.8765089,109.4851407,30.5,12.423529,3.032,249.75674
1776328810096,12.79905,9.663,-11.491051,19.397652,0.250525,-0.36107498,0.0891,-6.8765089,109.4851407,30.5,12.423529,3.032,249.75674
1776328810102,-4.9020004,15.672001,-0.009000001,17.016138,0.2569875,0.2732125,-0.375925,-6.8765089,109.4851407,30.5,12.423529,3.032,249.75674
1776328810106,-15.454051,14.295001,8.68605,21.62185,-0.0548625,0.5999125,-0.2418625,-6.8765089,109.4851407,30.5,12.423529,3.032,249.75674
1776328810112,-0.61695004,6.7630506,2.325,10.066849,-0.1464375,-0.4877125,-0.077,-6.8765089,109.4851407,30.5,12.423529,3.032,249.75674
1776328810115,11.364,6.3700504,-11.052001,15.680611,0.1813625,-0.1992375,0.52854997,-6.8765089,109.4851407,30.5,12.423529,3.032,249.75674
1776328810124,11.27595,14.463,-29.75295,31.096819,1.087075,-0.3163875,0.16885,-6.8765089,109.4851407,30.5,12.423529,3.032,249.75674
1776328810129,13.483951,13.179001,-21.23595,28.938078,0.0165,0.00825,0.04015,-6.8765089,109.4851407,30.5,12.423529,3.032,249.75674
1776328810140,0.23205002,4.47795,8.6980505,13.616259,-1.0286375,0.066825,-0.3377,-6.8765089,109.4851407,30.5,12.423529,3.032,249.75674
1776328810140,-16.101,4.3770003,39.0,36.658722,-1.0286375,0.066825,-0.3377,-6.8765089,109.4851407,30.5,12.423529,3.032,249.75674
1776328810146,-12.405001,3.4720502,19.71795,26.174026,-1.268025,0.90749997,-0.330275,-6.8765089,109.4851407,30.5,12.423529,3.032,249.75674
1776328810146,1.9159501,11.292001,11.874001,18.432915,0.6730625,0.2402125,0.1071125,-6.8765089,109.4851407,30.5,12.423529,3.032,249.75674
1776328810150,-8.652,14.14395,6.2790003,17.870163,0.6730625,0.2402125,0.1071125,-6.8765089,109.4851407,30.5,12.423529,3.032,249.75674
1776328810156,2.89995,8.82195,-1.7119501,11.128306,0.19305,-0.4109875,0.36795,-6.8765089,109.4851407,30.5,12.423529,3.032,249.75674
1776328810160,13.73805,10.185,-7.656,17.21542,0.2006125,-0.5313,0.0592625,-6.8765089,109.4851407,30.5,12.423529,3.032,249.75674
1776328810165,1.94895,18.129002,-6.5209503,18.934643,0.4357375,0.5212625,0.0592625,-6.8765089,109.4851407,30.5,12.423529,3.032,249.75674
1776328810166,-2.73705,12.337951,0.65295005,13.910732,-0.3102,0.1593625,-0.017324999,-6.8765089,109.4851407,30.5,12.423529,3.032,249.75674
1776328810179,10.152,10.293,16.702051,20.454136,-0.7327375,-0.3705625,0.0985875,-6.8765089,109.4851407,30.5,12.423529,3.032,249.75674
1776328810180,1.7580001,8.643001,3.111,11.572874,0.678425,0.4169,-0.0067375,-6.8765089,109.4851407,30.5,12.423529,3.032,249.75674
1776328810187,-1.9099501,10.99005,-8.911051,13.736265,0.3463625,0.017875,-0.230175,-6.8765089,109.4851407,30.5,12.423529,3.032,249.75674
1776328810188,1.17795,12.307051,2.871,12.90107,-0.48688748,-0.15675,-0.1854875,-6.8765089,109.4851407,30.5,12.423529,3.032,249.75674
1776328810199,-12.966001,16.66395,9.939,21.249344,0.268675,0.4467375,-0.1183875,-6.8765089,109.4851407,30.5,12.423529,3.032,249.75674
1776328810201,-5.03805,15.247951,-0.37305,17.100298,0.268675,0.4467375,-0.1183875,-6.8765089,109.4851407,30.5,12.423529,3.032,249.75674
1776328810202,20.962952,9.10995,-9.5460005,23.236217,-0.29645,-0.97185,0.4093375,-6.8765089,109.4851407,30.5,12.423529,3.032,249.75674
1776328810207,15.39,5.24205,0.19605,17.6548,-0.1442375,0.5361125,-0.0418,-6.8765089,109.4851407,30.5,12.423529,3.032,249.75674
1776328810210,-5.1220503,13.366051,18.56295,22.283579,-0.2187625,0.4307875,-0.48565,-6.8765089,109.4851407,30.5,12.423529,3.032,249.75674
1776328810216,-11.385,11.086051,11.944051,20.360006,0.0941875,-0.0545875,-0.4057625,-6.8765089,109.4851407,30.5,12.423529,3.032,249.75674
1776328810228,-4.1020503,14.118001,5.56605,16.648186,0.3537875,-0.18755,-0.035475,-6.8765089,109.4851407,30.5,12.423529,3.032,249.75674
1776328810228,-9.321,9.253051,-8.655001,15.913031,-0.6411625,-0.84095,0.1912625,-6.8765089,109.4851407,30.5,12.423529,3.032,249.75674
1776328810231,3.8130002,6.5160003,0.15495001,9.2235985,-0.6411625,-0.84095,0.1912625,-6.8765089,109.4851407,30.5,12.423529,3.032,249.75674
1776328810236,7.7910004,1.6609501,6.294,9.966705,-0.06545,0.2349875,0.147675,-6.8765089,109.4851407,30.5,12.423529,3.032,249.75674
1776328810246,-2.1379502,5.0809503,11.536051,12.22169,-0.06545,0.2349875,0.147675,-6.8765089,109.4851407,30.5,12.423529,3.032,249.75674
1776328810247,-5.4289503,7.1740503,8.530951,12.36297,0.2783,-0.0215875,0.1582625,-6.8765089,109.4851407,30.5,12.423529,3.032,249.75674
1776328810252,2.6179502,7.0000505,6.162,10.2216425,0.2783,-0.0215875,0.1582625,-6.8765089,109.4851407,30.5,12.423529,3.032,249.75674
1776328810257,-2.811,15.79695,-0.90900004,14.900995,0.7134875,0.0518375,0.062425,-6.8765089,109.4851407,30.5,12.423529,3.032,249.75674
1776328810261,1.434,11.277,-13.56,17.135921,0.26221249,-0.25465,0.2168375,-6.8765089,109.4851407,30.5,12.423529,3.032,249.75674
1776328810266,16.885052,6.3100505,-8.722051,19.44709,-0.40713748,-0.407825,0.211475,-6.8765089,109.4851407,30.5,12.423529,3.032,249.75674
1776328810279,0.25095,11.6650505,1.76205,13.32946,-0.122925,-0.5451875,0.187,-6.8765089,109.4851407,30.5,12.423529,3.032,249.75674
1776328810279,-6.1849504,21.075,-8.487,21.503105,-0.122925,-0.5451875,0.187,-6.8765089,109.4851407,30.5,12.423529,3.032,249.75674
1776328810282,11.326051,16.92,-21.315,27.882242,-0.122925,-0.5451875,0.187,-6.8765089,109.4851407,30.5,12.423529,3.032,249.75674
1776328810289,13.2640505,14.922001,-12.06105,24.236696,-0.55495,0.120037496,0.0177375,-6.8765089,109.4851407,30.5,12.423529,3.032,249.75674
1776328810292,-1.9750501,4.629,0.864,8.932431,-0.75515,0.8127625,-0.1546875,-6.8765089,109.4851407,30.5,12.423529,3.032,249.75674
1776328810296,-5.0410504,2.9020503,28.402052,24.979736,-0.935,-0.2407625,-0.3961375,-6.8765089,109.4851407,30.5,12.423529,3.032,249.75674
1776328810301,-12.7890005,7.73295,30.976952,32.510933,0.1835625,0.5253875,-0.1865875,-6.8765089,109.4851407,30.5,12.423529,3.032,249.75674
1776328810307,-11.227051,13.78005,0.73305005,20.733955,0.99233747,-0.2589125,0.162525,-6.8765089,109.4851407,30.5,12.423529,3.032,249.75674
1776328810313,10.095,11.98095,-11.509951,19.699152,-0.089925,-0.7462125,0.326425,-6.8765089,109.4851407,30.5,12.423529,3.032,249.75674
1776328810318,10.132951,4.83195,3.6760502,13.389919,-0.55825,0.1678875,0.0688875,-6.8765089,109.4851407,30.5,12.423529,3.032,249.75674
1776328810327,-6.6139503,7.3830004,25.923,24.880758,0.16445,-0.3366,-0.050325,-6.8765089,109.4851407,30.5,12.423529,3.032,249.75674
1776328810330,-4.66905,4.75995,15.864,18.742748,0.16445,-0.3366,-0.050325,-6.8765089,109.4851407,30.5,12.423529,3.032,249.75674
1776328810336,10.047001,6.8539505,-1.8100501,13.5854645,0.55385,-0.2684,0.1848,-6.8765089,109.4851407,30.5,12.423529,3.032,249.75674
1776328810348,0.66795003,15.334051,-16.58505,20.795025,1.051875,0.1923625,-0.08965,-6.8765089,109.4851407,30.5,12.423529,3.032,249.75674
1776328810349,2.0329502,19.68795,-19.27395,26.26035,1.051875,0.1923625,-0.08965,-6.8765089,109.4851407,30.5,12.423529,3.032,249.75674
1776328810349,6.06195,9.708,-8.24505,16.536703,1.051875,0.1923625,-0.08965,-6.8765089,109.4851407,30.5,12.423529,3.032,249.75674
1776328810352,-3.3640501,2.4079502,22.417051,21.54382,-1.1072875,0.4860625,-0.0482625,-6.8765089,109.4851407,30.5,12.423529,3.032,249.75674
1776328810358,-8.33895,-0.67305005,30.70605,29.769041,-0.252725,0.18493749,-0.0301125,-6.8765089,109.4851407,30.5,12.423529,3.032,249.75674
1776328810362,1.6639501,3.249,11.785951,15.82444,0.4272125,-0.51425,-0.044,-6.8765089,109.4851407,30.5,12.423529,3.032,249.75674
1776328810367,2.62995,15.495001,-0.69600004,15.750496,0.941325,0.154,0.00605,-6.8765089,109.4851407,30.5,12.423529,3.032,249.75674
1776328810380,-7.18695,16.182001,-11.368951,19.983637,0.594275,0.181775,-0.0534875,-6.8765089,109.4851407,30.5,12.423529,3.032,249.75674
1776328810380,1.6189501,6.67605,2.67705,9.894917,0.594275,0.181775,-0.0534875,-6.8765089,109.4851407,30.5,12.423529,3.032,249.75674
1776328810383,-3.9079502,0.06105,24.561,21.87501,-0.563475,0.2072125,-0.011,-6.8765089,109.4851407,30.5,12.423529,3.032,249.75674
1776328810392,-8.33895,7.27995,20.70495,23.157646,1.01365,-0.750475,0.2508,-6.8765089,109.4851407,30.5,12.423529,3.032,249.75674
1776328810392,8.32005,12.585001,-10.99695,19.566877,1.01365,-0.750475,0.2508,-6.8765089,109.4851407,30.5,12.423529,3.032,249.75674
1776328810397,15.526951,13.926001,-24.63705,29.737446,0.5028375,-0.358875,0.1189375,-6.8765089,109.4851407,30.5,12.423529,3.032,249.75674
1776328810403,6.117,11.37495,-18.48195,23.985489,0.0941875,0.5286875,0.0242,-6.8765089,109.4851407,30.5,12.423529,3.032,249.75674
1776328810407,-3.1030502,9.4810505,-4.38,13.513195,-0.539,0.2487375,-0.312125,-6.8765089,109.4851407,30.5,12.423529,3.032,249.75674
1776328810412,-3.3330002,11.03295,7.2850504,13.610453,-0.6656375,-0.2492875,-0.1397,-6.8765089,109.4851407,30.5,12.423529,3.032,249.75674
1776328810418,-1.1080501,12.07005,8.751,14.68186,0.1186625,0.2541,0.1912625,-6.8765089,109.4851407,30.5,12.423529,3.032,249.75674
1776328810428,2.769,6.42705,3.8100002,9.310843,-0.19745,-0.1417625,0.1337875,-6.8765089,109.4851407,30.5,12.423529,3.032,249.75674
1776328810428,9.975,5.24595,11.821051,14.928348,0.6571125,0.52648747,-0.22165,-6.8765089,109.4851407,30.5,12.423529,3.032,249.75674
1776328810432,-3.3280501,8.25195,3.6379502,10.675882,0.6571125,0.52648747,-0.22165,-6.8765089,109.4851407,30.5,12.423529,3.032,249.75674
1776328810437,-8.24295,17.37705,-7.46505,18.639915,0.5325375,-0.099275,-0.199375,-6.8765089,109.4851407,30.5,12.423529,3.032,249.75674
1776328810446,-0.45705003,13.543051,-16.94205,21.083673,-0.089925,-0.36107498,0.0358875,-6.8765089,109.4851407,30.5,12.423529,3.032,249.75674
1776328810448,2.73,10.25205,2.11395,12.871028,-0.6815875,0.1337875,0.20295,-6.8765089,109.4851407,30.5,12.423529,3.032,249.75674
1776328810454,-2.7529502,3.0570002,11.248951,12.156285,-0.4731375,0.2646875,0.176275,-6.8765089,109.4851407,30.5,12.423529,3.032,249.75674
1776328810460,10.104,1.0000501,13.567051,15.987794,-0.449625,-0.44825,0.121,-6.8765089,109.4851407,30.5,12.423529,3.032,249.75674
1776328810462,4.059,4.87305,5.02395,9.670255,0.3634125,0.277475,-0.22165,-6.8765089,109.4851407,30.5,12.423529,3.032,249.75674
1776328810468,-10.10595,12.87195,4.0020003,15.411933,0.32725,0.30621248,-0.2685375,-6.8765089,109.4851407,30.5,12.423529,3.032,249.75674
1776328810472,-12.229951,10.85295,3.0340502,16.386549,-0.1485,-0.1172875,-0.1758625,-6.8765089,109.4851407,30.5,12.423529,3.032,249.75674
1776328810479,-3.9100502,10.792951,12.312,16.74399,-0.287925,-0.22275,0.2806375,-6.8765089,109.4851407,30.5,12.423529,3.032,249.75674
1776328810483,-2.7130501,9.358951,7.9080005,13.388306,0.308,-0.05555,0.406175,-6.8765089,109.4851407,30.5,12.423529,3.032,249.75674
1776328810488,13.647,3.7830002,-2.1979501,14.142604,-0.03355,-0.6303,0.4541625,-6.8765089,109.4851407,30.5,12.423529,3.032,249.75674
1776328810494,21.229052,9.4140005,0.39195,21.409367,0.152625,-0.0609125,0.097625,-6.8765089,109.4851407,30.5,12.423529,3.032,249.75674
1776328810498,-2.6460001,16.96305,-4.1119504,18.404865,0.65395,0.7393375,-0.326975,-6.8765089,109.4851407,30.5,12.423529,3.032,249.75674
1776328810503,-7.7400002,17.983051,-1.6380001,19.398087,-0.1379125,0.1243,-0.22165,-6.8765089,109.4851407,30.5,12.423529,3.032,249.75674
1776328810508,-0.72495,12.024,2.5120502,13.723602,-0.4305125,-0.2695,0.0273625,-6.8765089,109.4851407,30.5,12.423529,3.032,249.75674
1776328810513,-2.7460501,7.6990504,-1.14705,9.348084,0.1909875,0.2146375,0.2050125,-6.8765089,109.4851407,30.5,12.423529,3.032,249.75674
1776328810518,2.70105,5.2660503,-6.9949503,9.19983,-0.46035,-0.2684,0.0422125,-6.8765089,109.4851407,30.5,12.423529,3.032,249.75674
1776328810525,10.641001,7.6819506,0.177,12.34024,-0.46035,-0.2684,0.0422125,-6.8765089,109.4851407,30.5,12.423529,3.032,249.75674
