timestamp,ax,ay,az,magnitude,gx,gy,gz,lat,lon,alt,speed,accuracy,bearing
1776327833108,-6.01095,5.8840504,6.1309505,12.296887,1.259225,0.6611,0.3642375,-6.9003327,109.5175285,32.70000076293945,17.138735,2.189,87.910965
1776327833108,-6.9040504,30.159002,11.344951,28.82225,1.259225,0.6611,0.3642375,-6.9003327,109.5175285,32.70000076293945,17.138735,2.189,87.910965
1776327833114,-17.146952,3.9270003,-34.58295,36.804245,1.259225,0.6611,0.3642375,-6.9003327,109.5175285,32.70000076293945,17.138735,2.189,87.910965
1776327892137,-12.3,15.460951,14.158951,19.445215,,,,-6.9003327,109.5175285,32.70000076293945,17.138735,2.189,87.910965
1776327892137,-9.249001,15.01605,5.92995,18.77399,,,,-6.9003327,109.5175285,32.70000076293945,17.138735,2.189,87.910965
1776327892145,17.98905,3.5800502,-8.298,19.860044,,,,-6.9003327,109.5175285,32.70000076293945,17.138735,2.189,87.910965
1776327892146,-11.28705,11.392051,7.66095,18.190115,,,,-6.9003327,109.5175285,32.70000076293945,17.138735,2.189,87.910965
1776327892186,-3.1650002,15.624001,-8.142,17.95822,,,,-6.9003327,109.5175285,32.70000076293945,17.138735,2.189,87.910965
1776327892193,11.842951,2.3749502,10.81095,16.559853,0.7748125,-0.23567499,0.2396625,-6.9003327,109.5175285,32.70000076293945,17.138735,2.189,87.910965
1776327892205,-7.7830505,10.995001,14.623951,19.218212,-0.4607625,-0.072875,0.4525125,-6.9003327,109.5175285,32.70000076293945,17.138735,2.189,87.910965
1776327892213,5.7619505,24.615002,-27.846,33.93149,0.3832125,0.36245,-0.1318625,-6.9003327,109.5175285,32.70000076293945,17.138735,2.189,87.910965
1776327892224,19.941002,6.97305,-13.123951,26.68211,-0.6235625,-0.1324125,0.341825,-6.9003327,109.5175285,32.70000076293945,17.138735,2.189,87.910965
1776327892234,-11.737051,11.55,21.84,27.218235,-0.51713747,0.614625,-0.5234625,-6.9003327,109.5175285,32.70000076293945,17.138735,2.189,87.910965
1776327892244,3.966,14.178,-8.368051,18.991055,0.5247,-0.282425,0.076725,-6.9003327,109.5175285,32.70000076293945,17.138735,2.189,87.910965
1776327892254,2.97,6.4219503,7.18905,11.867702,0.5247,-0.282425,0.076725,-6.9003327,109.5175285,32.70000076293945,17.138735,2.189,87.910965
1776327892265,-14.115001,11.48295,20.383951,24.23268,-0.4448125,-0.055825,-0.18287499,-6.9003327,109.5175285,32.70000076293945,17.138735,2.189,87.910965
1776327892278,6.13605,8.676001,-9.09105,16.03428,1.375E-4,0.1612875,-0.3606625,-6.9003327,109.5175285,32.70000076293945,17.138735,2.189,87.910965
1776327892304,12.36495,9.667951,-7.8930006,17.26185,0.567325,-0.3356375,0.3194125,-6.9003327,109.5175285,32.70000076293945,17.138735,2.189,87.910965
1776327892463,-4.08495,21.231,2.86905,20.900326,0.287375,0.3581875,-0.837375,-6.9003327,109.5175285,32.70000076293945,17.138735,2.189,87.910965
1776327892463,15.1390505,5.8360505,4.5859504,17.66858,-0.47355,0.225225,-0.5372125,-6.9003327,109.5175285,32.70000076293945,17.138735,2.189,87.910965
1776327892463,-8.7310505,13.48995,3.801,16.743593,-0.47355,0.225225,-0.5372125,-6.9003327,109.5175285,32.70000076293945,17.138735,2.189,87.910965
1776327892464,-12.693001,9.57705,16.875,21.897644,-0.47355,0.225225,-0.5372125,-6.9003327,109.5175285,32.70000076293945,17.138735,2.189,87.910965
1776327892464,11.568001,-4.6920004,17.385,21.501617,-0.47355,0.225225,-0.5372125,-6.9003327,109.5175285,32.70000076293945,17.138735,2.189,87.910965
1776327892464,-15.0060005,7.9939504,15.97395,22.963663,-0.47355,0.225225,-0.5372125,-6.9003327,109.5175285,32.70000076293945,17.138735,2.189,87.910965
1776327892464,-6.9570003,19.834951,-14.42895,24.989122,-0.47355,0.225225,-0.5372125,-6.9003327,109.5175285,32.70000076293945,17.138735,2.189,87.910965
1776327892464,30.265951,4.78905,-17.00205,33.03246,-0.47355,0.225225,-0.5372125,-6.9003327,109.5175285,32.70000076293945,17.138735,2.189,87.910965
1776327892464,3.3940501,10.908001,-1.48695,15.822655,-0.47355,0.225225,-0.5372125,-6.9003327,109.5175285,32.70000076293945,17.138735,2.189,87.910965
1776327892464,-15.459001,18.642,0.124050006,22.539076,-0.47355,0.225225,-0.5372125,-6.9003327,109.5175285,32.70000076293945,17.138735,2.189,87.910965
1776327892464,17.122051,2.94705,-11.040001,20.975605,-0.47355,0.225225,-0.5372125,-6.9003327,109.5175285,32.70000076293945,17.138735,2.189,87.910965
1776327892464,-1.1770501,0.11400001,17.22195,18.005123,-0.47355,0.225225,-0.5372125,-6.9003327,109.5175285,32.70000076293945,17.138735,2.189,87.910965
1776327892464,-13.9810505,18.820951,1.9440001,22.4219,-0.47355,0.225225,-0.5372125,-6.9003327,109.5175285,32.70000076293945,17.138735,2.189,87.910965
1776327892464,15.622951,8.425051,-16.71195,23.987774,-0.47355,0.225225,-0.5372125,-6.9003327,109.5175285,32.70000076293945,17.138735,2.189,87.910965
1776327892466,-3.9079502,9.00405,7.5769506,14.7174,-0.47355,0.225225,-0.5372125,-6.9003327,109.5175285,32.70000076293945,17.138735,2.189,87.910965
1776327892479,-8.985001,11.610001,10.95705,17.59854,-0.0094875,-0.6304375,0.2066625,-6.9003327,109.5175285,32.70000076293945,17.138735,2.189,87.910965
1776327892486,12.07995,1.386,-8.4199505,15.3516445,-0.56925,-0.363275,-0.1276,-6.9003327,109.5175285,32.70000076293945,17.138735,2.189,87.910965
1776327892496,-16.137001,1.6300501,28.953001,29.619438,-0.79915,0.32835,-0.2116125,-6.9003327,109.5175285,32.70000076293945,17.138735,2.189,87.910965
1776327892506,0.048,5.12895,9.573001,14.612299,0.7854,-0.5473875,0.6919,-6.9003327,109.5175285,32.70000076293945,17.138735,2.189,87.910965
1776327892516,14.296051,9.529051,-19.924051,23.969421,0.0213125,-0.12815,-0.3861,-6.9003327,109.5175285,32.70000076293945,17.138735,2.189,87.910965
1776327892526,-7.1200504,21.264002,-3.00795,22.894062,-0.2468125,0.221925,-0.0306625,-6.9003327,109.5175285,32.70000076293945,17.138735,2.189,87.910965
1776327892537,11.901001,12.132001,1.76505,18.247688,-0.37565,-0.42295,0.4992625,-6.9003327,109.5175285,32.70000076293945,17.138735,2.189,87.910965
1776327892546,12.636001,11.658001,-14.809951,21.80288,0.2182125,0.1953875,-0.7915875,-6.9003327,109.5175285,32.70000076293945,17.138735,2.189,87.910965
1776327892557,-17.368052,20.167051,-2.5069501,25.746836,-0.6906625,0.3997125,-0.2998875,-6.9003327,109.5175285,32.70000076293945,17.138735,2.189,87.910965
1776327892566,11.427001,1.04295,7.5100503,16.12031,-0.3575,0.0836,-0.363825,-6.9003327,109.5175285,32.70000076293945,17.138735,2.189,87.910965
1776327892577,1.67595,-5.7190504,17.26095,17.832699,-0.904475,0.3422375,-1.1171875,-6.9003327,109.5175285,32.70000076293945,17.138735,2.189,87.910965
1776327892590,-36.25695,11.587951,24.79305,39.907524,0.8908625,-0.09515,-0.329725,-6.9003327,109.5175285,32.70000076293945,17.138735,2.189,87.910965
1776327892596,11.460001,3.6180003,3.4009502,17.973118,-0.155375,-0.143,1.0803375,-6.9003327,109.5175285,32.70000076293945,17.138735,2.189,87.910965
1776327892607,13.932001,-2.6820002,19.03005,22.58408,0.3927,0.5209875,-0.508475,-6.9003327,109.5175285,32.70000076293945,17.138735,2.189,87.910965
1776327892617,-19.63305,26.907001,-7.73505,31.872543,1.5197875,0.3400375,0.05335,-6.9003327,109.5175285,32.70000076293945,17.138735,2.189,87.910965
1776327892626,12.849001,18.048,-27.991951,34.93324,-1.1119624,-0.5825875,0.8611625,-6.9003327,109.5175285,32.70000076293945,17.138735,2.189,87.910965
1776327892637,30.469051,-3.7720501,-6.0280504,32.01692,-0.3884375,0.862675,-0.2861375,-6.9003327,109.5175285,32.70000076293945,17.138735,2.189,87.910965
1776327892649,-17.727001,19.257,5.12505,27.740221,-0.3947625,0.3422375,-1.0192875,-6.9003327,109.5175285,32.70000076293945,17.138735,2.189,87.910965
1776327892662,-2.2150502,5.26095,7.2709503,12.943211,-0.5479375,-0.1995125,0.5333625,-6.9003327,109.5175285,32.70000076293945,17.138735,2.189,87.910965
1776327892667,6.5550003,-2.2080002,13.483951,14.712278,0.270325,0.0314875,-0.6479,-6.9003327,109.5175285,32.70000076293945,17.138735,2.189,87.910965
1776327892677,-19.890001,15.805951,9.517051,24.646126,0.3821125,0.0730125,-0.27445,-6.9003327,109.5175285,32.70000076293945,17.138735,2.189,87.910965
1776327892688,5.5230002,8.22105,-7.7980504,15.01363,0.0554125,-0.5484875,0.666325,-6.9003327,109.5175285,32.70000076293945,17.138735,2.189,87.910965
1776327892697,10.435051,-0.0049500004,0.90300006,11.381966,0.090475,0.8828875,-0.3531,-6.9003327,109.5175285,32.70000076293945,17.138735,2.189,87.910965
1776327892712,-13.429951,14.038951,5.8840504,18.516153,0.0628375,-0.265375,0.2545125,-6.9003327,109.5175285,32.70000076293945,17.138735,2.189,87.910965
1776327892718,6.74205,8.323951,2.5740001,12.516634,-0.253275,-0.0185625,0.437525,-6.9003327,109.5175285,32.70000076293945,17.138735,2.189,87.910965
1776327892728,3.6910503,5.9430003,13.644001,14.7697525,0.7876,0.42845,-0.264825,-6.9003327,109.5175285,32.70000076293945,17.138735,2.189,87.910965
1776327892738,-6.02295,22.584002,-8.14995,22.756735,0.6012875,-0.8369625,0.2311375,-6.9003327,109.5175285,32.70000076293945,17.138735,2.189,87.910965
1776327892747,17.54595,8.64,-12.619051,23.171774,-0.5927625,-0.0154,-0.0072875,-6.9003327,109.5175285,32.70000076293945,17.138735,2.189,87.910965
1776327892757,-0.23400001,7.1050506,5.52495,11.837091,0.189475,0.0048125,-0.3553,-6.9003327,109.5175285,32.70000076293945,17.138735,2.189,87.910965
1776327892767,-5.4859505,11.703001,-14.3220005,17.8009,0.11825,-0.298375,0.093775,-6.9003327,109.5175285,32.70000076293945,17.138735,2.189,87.910965
1776327892778,7.31895,5.5200005,0.081,10.894221,-1.2109625,-0.16225,-0.2946625,-6.9003327,109.5175285,32.70000076293945,17.138735,2.189,87.910965
1776327892790,-12.98505,-3.3390002,54.328053,46.945244,-0.986425,0.304975,-0.6681125,-6.9003327,109.5175285,32.70000076293945,17.138735,2.189,87.910965
1776327892798,-18.537,16.659,19.40595,34.658585,1.958275,-0.5410625,0.3672625,-6.9003327,109.5175285,32.70000076293945,17.138735,2.189,87.910965
1776327892808,12.328951,20.455051,-28.009052,36.379097,-0.17765,-0.1260875,0.651475,-6.9003327,109.5175285,32.70000076293945,17.138735,2.189,87.910965
1776327892818,10.087951,7.1790004,4.2649503,17.752295,-0.22453749,0.5093,0.014025,-6.9003327,109.5175285,32.70000076293945,17.138735,2.189,87.910965
1776327892828,1.6170001,12.517951,1.8889501,13.760475,0.175725,-0.134475,0.08525,-6.9003327,109.5175285,32.70000076293945,17.138735,2.189,87.910965
1776327892839,0.59595,5.87895,-1.5300001,7.635249,-0.692725,0.0528,0.1034,-6.9003327,109.5175285,32.70000076293945,17.138735,2.189,87.910965
1776327892849,-11.91195,2.77005,25.602001,24.225494,-0.220275,0.1496,0.0086624995,-6.9003327,109.5175285,32.70000076293945,17.138735,2.189,87.910965
1776327892858,-0.10005,9.186001,21.556952,23.591316,0.600325,-0.3059375,0.421575,-6.9003327,109.5175285,32.70000076293945,17.138735,2.189,87.910965
1776327892869,13.486051,10.008,-8.6980505,19.848412,0.8971875,0.306075,-0.1285625,-6.9003327,109.5175285,32.70000076293945,17.138735,2.189,87.910965
1776327892880,-9.93795,24.85695,-24.847952,33.18942,0.2778875,0.0187,0.1395625,-6.9003327,109.5175285,32.70000076293945,17.138735,2.189,87.910965
1776327892889,8.57205,10.594951,-7.8910503,19.23634,-0.8757375,-0.2558875,0.7610625,-6.9003327,109.5175285,32.70000076293945,17.138735,2.189,87.910965
1776327892899,15.196051,-3.387,9.77805,18.555132,0.565125,0.957275,-0.86075,-6.9003327,109.5175285,32.70000076293945,17.138735,2.189,87.910965
1776327892912,-25.092001,18.14595,14.130001,30.940905,-0.104225,-0.6571125,0.2693625,-6.9003327,109.5175285,32.70000076293945,17.138735,2.189,87.910965
1776327892919,2.5890002,6.4819503,8.595,15.045906,0.058575,-0.5996375,0.5715875,-6.9003327,109.5175285,32.70000076293945,17.138735,2.189,87.910965
1776327892929,22.11795,3.28005,-4.215,21.212105,1.205875,0.6424,-0.56925,-6.9003327,109.5175285,32.70000076293945,17.138735,2.189,87.910965
1776327892940,-17.15205,29.407051,-9.60105,32.539677,-0.724625,-0.71885,0.406725,-6.9003327,109.5175285,32.70000076293945,17.138735,2.189,87.910965
1776327892949,9.846001,3.7810502,-1.317,15.011095,-0.60225,-0.4494875,0.8578625,-6.9003327,109.5175285,32.70000076293945,17.138735,2.189,87.910965
1776327892960,7.1350503,-4.90695,12.52305,15.182568,-0.056375,0.5115,-0.9821625,-6.9003327,109.5175285,32.70000076293945,17.138735,2.189,87.910965
1776327892970,-25.420052,12.12705,14.04405,28.214025,0.85882497,0.0048125,-0.230725,-6.9003327,109.5175285,32.70000076293945,17.138735,2.189,87.910965
1776327892980,12.163951,9.2029505,-15.4470005,23.009731,0.2981,-0.5814875,0.766425,-6.9003327,109.5175285,32.70000076293945,17.138735,2.189,87.910965
1776327892991,17.757,7.9030504,2.63895,20.293642,-0.186175,0.7497875,-0.509575,-6.9003327,109.5175285,32.70000076293945,17.138735,2.189,87.910965
1776327893000,-13.842001,23.680952,14.06805,28.720259,0.8503,-0.39105,-0.282975,-6.9003327,109.5175285,32.70000076293945,17.138735,2.189,87.910965
1776327893010,14.812951,18.972,-38.308052,41.93791,-0.889625,0.093225,-0.330825,-6.9003327,109.5175285,32.70000076293945,17.138735,2.189,87.910965
1776327893021,2.7949502,6.1810503,-5.86005,15.558961,-1.9868749,0.7093625,-0.9139625,-6.9003327,109.5175285,32.70000076293945,17.138735,2.189,87.910965
1776327893030,-18.798,-2.6179502,44.530052,41.83662,-0.396825,-0.84328747,0.0108624995,-6.9003327,109.5175285,32.70000076293945,17.138735,2.189,87.910965
1776327893041,7.7050505,-5.26905,6.62895,17.526318,0.8536,-0.349525,-0.201025,-6.9003327,109.5175285,32.70000076293945,17.138735,2.189,87.910965
1776327893050,-15.660001,8.00595,8.392051,19.095156,0.18095,0.2613875,-0.8809625,-6.9003327,109.5175285,32.70000076293945,17.138735,2.189,87.910965
1776327893060,-12.670951,18.558,19.177052,27.452387,0.08195,-1.2838374,0.9887625,-6.9003327,109.5175285,32.70000076293945,17.138735,2.189,87.910965
1776327893070,33.786003,9.687,-24.453001,39.743946,1.0802,-0.68475,0.7291625,-6.9003327,109.5175285,32.70000076293945,17.138735,2.189,87.910965
1776327893081,3.3340502,27.712051,-32.52405,42.23593,-0.3276625,0.7051,-1.1523875,-6.9003327,109.5175285,32.70000076293945,17.138735,2.189,87.910965
1776327893091,-14.949,11.265,19.629002,30.145786,-1.90905,-0.6793875,0.4992625,-6.9003327,109.5175285,32.70000076293945,17.138735,2.189,87.910965
1776327893100,16.71495,-5.37195,9.438001,21.975533,0.2182125,-0.2431,-0.1711875,-6.9003327,109.5175285,32.70000076293945,17.138735,2.189,87.910965
1776327893113,-21.918001,11.88105,19.93095,29.930037,-0.3372875,0.2677125,-0.63414997,-6.9003327,109.5175285,32.70000076293945,17.138735,2.189,87.910965
1776327893120,-2.8950002,6.50895,6.6529503,13.783821,0.1288375,-1.3839375,0.684475,-6.9003327,109.5175285,32.70000076293945,17.138735,2.189,87.910965
1776327893142,18.75,1.5960001,-4.0729504,18.159594,0.060775,0.4145625,-0.18287499,-6.9003327,109.5175285,32.70000076293945,17.138735,2.189,87.910965
1776327893145,-19.47495,21.556952,-0.89295006,26.883904,-0.2393875,-0.88165,0.9472375,-6.9003327,109.5175285,32.70000076293945,17.138735,2.189,87.910965
1776327893153,6.8260503,12.031951,-11.92695,19.988884,-0.9119,-0.0803,0.1991,-6.9003327,109.5175285,32.70000076293945,17.138735,2.189,87.910965
1776327893163,19.411951,-5.85795,4.986,20.70226,-0.463925,1.2170125,-0.8023125,-6.9003327,109.5175285,32.70000076293945,17.138735,2.189,87.910965
1776327893174,-29.605951,9.838051,26.941051,37.11676,1.1803,-0.4346375,-0.066825,-6.9003327,109.5175285,32.70000076293945,17.138735,2.189,87.910965
1776327893184,3.5040002,13.732051,-19.00605,26.389889,-0.1595,-0.707025,1.0399125,-6.9003327,109.5175285,32.70000076293945,17.138735,2.189,87.910965
1776327893195,23.785051,2.87295,1.5640501,24.485123,-0.560725,0.5550875,-0.493625,-6.9003327,109.5175285,32.70000076293945,17.138735,2.189,87.910965
1776327893204,-10.54395,13.77795,17.40195,24.555462,1.0366125,-0.5017375,-0.30415,-6.9003327,109.5175285,32.70000076293945,17.138735,2.189,87.910965
1776327893215,-0.34605002,22.657951,-25.135052,31.984604,-0.2255,-0.301675,0.4109875,-6.9003327,109.5175285,32.70000076293945,17.138735,2.189,87.910965
1776327893226,4.737,1.9650002,9.77595,15.228485,-1.5387625,0.337975,-0.0477125,-6.9003327,109.5175285,32.70000076293945,17.138735,2.189,87.910965
1776327893234,-12.108001,-1.49205,38.473053,35.33445,1.267475,-0.68255,-0.0061875,-6.9003327,109.5175285,32.70000076293945,17.138735,2.189,87.910965
1776327893252,4.1940002,11.553,-15.780001,23.068289,-0.3276625,0.4444,-0.15413749,-6.9003327,109.5175285,32.70000076293945,17.138735,2.189,87.910965
1776327893257,1.45395,2.7889502,-7.15605,10.867043,-0.3276625,0.4444,-0.15413749,-6.9003327,109.5175285,32.70000076293945,17.138735,2.189,87.910965
1776327893266,-10.255051,14.71905,12.757951,19.783985,0.632225,-0.807125,0.813175,-6.9003327,109.5175285,32.70000076293945,17.138735,2.189,87.910965
1776327893279,22.896002,14.506051,-17.650951,29.832914,-0.5234625,-0.2366375,0.1810875,-6.9003327,109.5175285,32.70000076293945,17.138735,2.189,87.910965
1776327893286,0.97695005,10.872001,5.0989504,15.604977,-0.103125,0.5806625,-0.7767375,-6.9003327,109.5175285,32.70000076293945,17.138735,2.189,87.910965
1776327893296,-13.36305,19.67205,-3.2209501,22.319914,-0.2979625,-0.9315625,0.748275,-6.9003327,109.5175285,32.70000076293945,17.138735,2.189,87.910965
1776327893306,15.879001,4.13805,-7.4500504,18.88107,-1.2513875,-0.2325125,-0.004125,-6.9003327,109.5175285,32.70000076293945,17.138735,2.189,87.910965
1776327893317,-10.807951,2.14995,26.37795,26.646008,0.11495,0.5220875,-0.6054125,-6.9003327,109.5175285,32.70000076293945,17.138735,2.189,87.910965
1776327893327,-20.223001,14.77095,20.83395,31.390106,0.11495,-0.8273375,0.928125,-6.9003327,109.5175285,32.70000076293945,17.138735,2.189,87.910965
1776327893336,17.20095,1.09395,3.561,20.357798,-0.1925,0.00275,0.2864125,-6.9003327,109.5175285,32.70000076293945,17.138735,2.189,87.910965
1776327893346,-8.755051,14.2900505,13.078951,21.078203,1.0696125,0.4145625,0.104499996,-6.9003327,109.5175285,32.70000076293945,17.138735,2.189,87.910965
1776327893359,-3.5650501,23.688002,-5.8699503,23.946426,-0.0616,-0.4250125,0.96965,-6.9003327,109.5175285,32.70000076293945,17.138735,2.189,87.910965
1776327893365,21.378,3.45705,-1.3810501,22.149054,-0.284075,0.5050375,-0.0254375,-6.9003327,109.5175285,32.70000076293945,17.138735,2.189,87.910965
1776327893378,-13.179001,12.111001,15.130951,23.17967,0.8866,0.1155,0.028875,-6.9003327,109.5175285,32.70000076293945,17.138735,2.189,87.910965
1776327893386,-4.44705,17.35305,-9.10305,20.71116,0.008525,-0.840125,0.8003875,-6.9003327,109.5175285,32.70000076293945,17.138735,2.189,87.910965
1776327893400,18.98295,-4.56705,-4.6309505,20.195267,-0.0925375,0.4475625,-0.50215,-6.9003327,109.5175285,32.70000076293945,17.138735,2.189,87.910965
1776327893407,-14.944051,12.901051,8.265,21.161146,0.5960625,-0.1111,-0.043449998,-6.9003327,109.5175285,32.70000076293945,17.138735,2.189,87.910965
1776327893419,-3.5800502,17.346,-1.044,18.426098,-0.1329625,-0.446325,1.010075,-6.9003327,109.5175285,32.70000076293945,17.138735,2.189,87.910965
1776327893430,14.37495,2.217,0.57405,15.330204,-0.381975,-0.4442625,0.3183125,-6.9003327,109.5175285,32.70000076293945,17.138735,2.189,87.910965
1776327893440,-12.790951,19.518002,-0.201,21.735395,0.189475,-0.4772625,0.160875,-6.9003327,109.5175285,32.70000076293945,17.138735,2.189,87.910965
1776327893451,2.8549502,7.8930006,-1.82895,11.219412,-0.8353125,-0.218625,0.979275,-6.9003327,109.5175285,32.70000076293945,17.138735,2.189,87.910965
1776327893461,4.4430003,-4.4089503,8.17605,10.481431,0.7844375,0.2539625,-0.120037496,-6.9003327,109.5175285,32.70000076293945,17.138735,2.189,87.910965
1776327893473,-14.134951,17.15895,-4.80105,20.29126,-0.3202375,-0.2633125,0.6483125,-6.9003327,109.5175285,32.70000076293945,17.138735,2.189,87.910965
1776327893487,12.63405,2.904,9.823951,17.070553,0.96854997,-0.003575,-0.2924625,-6.9003327,109.5175285,32.70000076293945,17.138735,2.189,87.910965
1776327893489,10.689,0.83205,2.8639503,12.291922,0.96854997,-0.003575,-0.2924625,-6.9003327,109.5175285,32.70000076293945,17.138735,2.189,87.910965
1776327893498,-17.67,29.782951,-23.322,35.8594,-0.2883375,-0.25905,0.4651625,-6.9003327,109.5175285,32.70000076293945,17.138735,2.189,87.910965
1776327893517,10.777051,7.4449506,-5.2920003,18.473629,0.54175,0.3763375,-0.4489375,-6.9003327,109.5175285,32.70000076293945,17.138735,2.189,87.910965
1776327893518,4.584,-2.9550002,23.421001,22.932829,0.54175,0.3763375,-0.4489375,-6.9003327,109.5175285,32.70000076293945,17.138735,2.189,87.910965
1776327893527,-17.97105,24.694052,-9.262951,30.118439,-0.11165,-0.627275,0.945175,-6.9003327,109.5175285,32.70000076293945,17.138735,2.189,87.910965
1776327893538,15.18,3.14595,-10.614,21.054035,-1.3121625,-0.218625,0.5641625,-6.9003327,109.5175285,32.70000076293945,17.138735,2.189,87.910965
1776327893550,-1.8000001,2.1349502,25.660051,24.86005,0.3331625,0.633875,-0.083875,-6.9003327,109.5175285,32.70000076293945,17.138735,2.189,87.910965
1776327893558,-10.33395,19.95195,-3.21105,23.130102,0.075625,-0.4431625,1.13245,-6.9003327,109.5175285,32.70000076293945,17.138735,2.189,87.910965
1776327893567,14.269051,7.9600506,-12.310051,20.991947,-1.3398,0.46145,0.594,-6.9003327,109.5175285,32.70000076293945,17.138735,2.189,87.910965
1776327893579,-5.8240504,-1.4629501,30.237001,28.860405,-0.071225,0.7104625,0.2459875,-6.9003327,109.5175285,32.70000076293945,17.138735,2.189,87.910965
1776327893588,-10.35,10.597051,8.31495,19.361687,0.5374875,0.0059125,0.92922497,-6.9003327,109.5175285,32.70000076293945,17.138735,2.189,87.910965
1776327893600,9.38805,3.2749503,-9.13605,14.674654,-0.333025,0.3730375,0.15015,-6.9003327,109.5175285,32.70000076293945,17.138735,2.189,87.910965
1776327893608,-7.1410503,7.3710003,18.79305,20.065115,0.4332625,0.42845,0.6705875,-6.9003327,109.5175285,32.70000076293945,17.138735,2.189,87.910965
1776327893618,4.8349504,18.06705,-1.67805,19.035372,0.1065625,-0.103675,0.9972875,-6.9003327,109.5175285,32.70000076293945,17.138735,2.189,87.910965
1776327893631,19.354052,9.049951,-21.399,27.998287,-0.1819125,-0.0248875,0.682275,-6.9003327,109.5175285,32.70000076293945,17.138735,2.189,87.910965
1776327893636,-7.73295,19.305,-14.748001,25.995502,-0.63414997,0.4763,0.080025,-6.9003327,109.5175285,32.70000076293945,17.138735,2.189,87.910965
1776327893648,0.666,2.5470002,16.33395,18.434898,-1.3270125,-0.167475,0.831325,-6.9003327,109.5175285,32.70000076293945,17.138735,2.189,87.910965
1776327893666,6.5170503,-8.883,22.206001,23.518045,0.0224125,0.5753,-0.2882,-6.9003327,109.5175285,32.70000076293945,17.138735,2.189,87.910965
1776327893666,-27.94905,11.737051,18.115952,32.955,0.1139875,-0.2473625,0.90365,-6.9003327,109.5175285,32.70000076293945,17.138735,2.189,87.910965
1776327893678,-0.09,3.1650002,7.8480005,13.36112,-0.2809125,-0.4527875,1.72315,-6.9003327,109.5175285,32.70000076293945,17.138735,2.189,87.910965
1776327893686,24.25905,1.8769501,-3.1200001,22.296843,1.466575,0.8424625,0.23539999,-6.9003327,109.5175285,32.70000076293945,17.138735,2.189,87.910965
1776327893697,-1.8769501,30.931051,-30.292051,39.12681,0.05115,0.419925,0.2864125,-6.9003327,109.5175285,32.70000076293945,17.138735,2.189,87.910965
1776327893707,7.8169503,11.995951,-4.866,19.923243,-1.5994,-0.1802625,1.03675,-6.9003327,109.5175285,32.70000076293945,17.138735,2.189,87.910965
1776327893720,14.583001,-0.82395005,10.071,18.178007,0.0543125,1.1,-0.33715,-6.9003327,109.5175285,32.70000076293945,17.138735,2.189,87.910965
1776327893736,-16.812,19.237951,6.0730505,24.644156,-0.6980875,0.1282875,0.7621625,-6.9003327,109.5175285,32.70000076293945,17.138735,2.189,87.910965
1776327893736,0.55305004,-1.2049501,11.496,14.18659,-0.6980875,0.1282875,0.7621625,-6.9003327,109.5175285,32.70000076293945,17.138735,2.189,87.910965
1776327893749,0.50805,5.45205,8.93505,11.220848,0.51094997,0.3433375,-0.01155,-6.9003327,109.5175285,32.70000076293945,17.138735,2.189,87.910965
1776327893756,-4.7959504,13.35105,2.4090002,13.755693,-0.199925,0.1964875,0.24915,-6.9003327,109.5175285,32.70000076293945,17.138735,2.189,87.910965
1776327893767,13.62495,4.6410003,-6.0370502,15.237909,0.4258375,0.2497,0.535425,-6.9003327,109.5175285,32.70000076293945,17.138735,2.189,87.910965
1776327893787,2.56005,13.7029505,-5.7520504,15.111698,-0.5874,0.319825,0.1375,-6.9003327,109.5175285,32.70000076293945,17.138735,2.189,87.910965
1776327893788,-6.7650003,9.34395,18.226051,20.278315,-0.659725,0.14533749,0.18425,-6.9003327,109.5175285,32.70000076293945,17.138735,2.189,87.910965
1776327893798,7.6540504,7.2460504,10.741051,16.094532,0.437525,0.26455,0.3843125,-6.9003327,109.5175285,32.70000076293945,17.138735,2.189,87.910965
1776327893820,-2.53095,17.104052,4.45695,17.503304,-0.1552375,0.72008747,-0.04455,-6.9003327,109.5175285,32.70000076293945,17.138735,2.189,87.910965
1776327893821,-13.236001,15.904051,32.683952,34.44703,-0.350075,0.803,-0.018975,-6.9003327,109.5175285,32.70000076293945,17.138735,2.189,87.910965
1776327893830,16.417952,6.98505,9.12495,22.92147,1.0462375,0.0218625,0.0427625,-6.9003327,109.5175285,32.70000076293945,17.138735,2.189,87.910965
1776327893840,3.7740002,13.099951,-19.437,23.577324,0.780175,0.9392625,-0.2765125,-6.9003327,109.5175285,32.70000076293945,17.138735,2.189,87.910965
1776327893852,-7.8570004,19.153952,0.81405,21.290514,-0.854425,0.026124999,0.5396875,-6.9003327,109.5175285,32.70000076293945,17.138735,2.189,87.910965
1776327893860,15.595951,-5.53305,32.959953,33.76289,0.042625,0.4455,-0.086075,-6.9003327,109.5175285,32.70000076293945,17.138735,2.189,87.910965
1776327893870,-12.973051,11.064,12.928051,23.87046,2.497825,0.5742,-0.379775,-6.9003327,109.5175285,32.70000076293945,17.138735,2.189,87.910965
1776327893882,-10.80105,29.424002,-34.143,41.852856,-0.300025,-0.3697375,0.960025,-6.9003327,109.5175285,32.70000076293945,17.138735,2.189,87.910965
1776327893890,31.25505,-2.6149502,-0.045,33.461998,-0.7288875,0.36355,0.553575,-6.9003327,109.5175285,32.70000076293945,17.138735,2.189,87.910965
1776327893901,8.883,-2.91,13.396951,19.760935,1.4729,1.1669625,-1.28645,-6.9003327,109.5175285,32.70000076293945,17.138735,2.189,87.910965
1776327893911,-30.973951,28.25505,-20.88405,41.423264,-0.2393875,-0.282425,0.0991375,-6.9003327,109.5175285,32.70000076293945,17.138735,2.189,87.910965
1776327893920,10.19505,2.14695,7.3810506,18.499256,-1.2131625,-0.1324125,1.0888625,-6.9003327,109.5175285,32.70000076293945,17.138735,2.189,87.910965
1776327893931,29.121002,-3.015,14.128051,29.705696,1.972025,0.49115,-0.639375,-6.9003327,109.5175285,32.70000076293945,17.138735,2.189,87.910965
1776327893942,-7.5100503,27.367052,-35.676003,42.41038,-0.4756125,0.6285125,-0.4978875,-6.9003327,109.5175285,32.70000076293945,17.138735,2.189,87.910965
1776327893962,-17.334002,9.984,11.946,27.121471,-1.7111875,0.450725,-0.0977625,-6.9003327,109.5175285,32.70000076293945,17.138735,2.189,87.910965
1776327893965,14.533051,-10.749001,33.942,36.188534,1.107975,0.0133375,-0.0306625,-6.9003327,109.5175285,32.70000076293945,17.138735,2.189,87.910965
1776327893974,5.62305,10.863001,-15.475951,23.01878,0.714175,0.2858625,-0.7426375,-6.9003327,109.5175285,32.70000076293945,17.138735,2.189,87.910965
1776327893986,-20.71095,12.83895,-1.64205,24.142084,-1.45145,-0.1472625,0.11935,-6.9003327,109.5175285,32.70000076293945,17.138735,2.189,87.910965
1776327893994,5.997,-2.56005,17.962051,20.1156,1.352725,-0.070675,0.1054625,-6.9003327,109.5175285,32.70000076293945,17.138735,2.189,87.910965
1776327894004,15.472051,23.166,-29.47005,36.46538,0.3949,0.0708125,-0.14355,-6.9003327,109.5175285,32.70000076293945,17.138735,2.189,87.910965
1776327894019,5.80305,22.58595,-18.975,31.344372,-0.2957625,0.731775,-0.3595625,-6.9003327,109.5175285,32.70000076293945,17.138735,2.189,87.910965
1776327894027,16.047,-0.072000004,18.889051,26.09706,-0.2957625,0.731775,-0.3595625,-6.9003327,109.5175285,32.70000076293945,17.138735,2.189,87.910965
1776327894032,-5.9869504,9.847051,4.12095,15.010517,0.124575,1.188275,-1.0374374,-6.9003327,109.5175285,32.70000076293945,17.138735,2.189,87.910965
1776327894042,-34.131,14.340001,13.282051,34.467373,-1.42065,-0.282425,0.31515,-6.9003327,109.5175285,32.70000076293945,17.138735,2.189,87.910965
1776327894054,10.00905,-6.2460003,40.18605,40.399174,0.0873125,0.0176,0.8738125,-6.9003327,109.5175285,32.70000076293945,17.138735,2.189,87.910965
1776327894062,23.761051,-1.281,13.12695,29.82079,1.49215,0.8817875,-1.178925,-6.9003327,109.5175285,32.70000076293945,17.138735,2.189,87.910965
1776327894072,-30.166952,27.585001,-9.16005,39.477226,0.0628375,-0.054725,-0.4426125,-6.9003327,109.5175285,32.70000076293945,17.138735,2.189,87.910965
1776327894085,-3.6730502,14.569951,1.9009501,20.011904,-0.168025,-0.3515875,0.5737875,-6.9003327,109.5175285,32.70000076293945,17.138735,2.189,87.910965
1776327894093,33.50595,1.9939501,8.75595,31.753172,0.77385,0.75515,-0.6298875,-6.9003327,109.5175285,32.70000076293945,17.138735,2.189,87.910965
1776327894102,-12.823951,19.686,6.255,25.80096,0.5588,0.715825,-0.89265,-6.9003327,109.5175285,32.70000076293945,17.138735,2.189,87.910965
1776327894114,-16.479,11.169001,-2.1000001,21.174467,0.1874125,-0.061049998,1.0143375,-6.9003327,109.5175285,32.70000076293945,17.138735,2.189,87.910965
1776327894122,22.480051,-2.7810001,-8.752951,23.6619,-0.2574,0.1931875,-0.2935625,-6.9003327,109.5175285,32.70000076293945,17.138735,2.189,87.910965
1776327894139,-7.5340505,9.423,29.712002,30.386797,-0.3564,0.5072375,-0.4978875,-6.9003327,109.5175285,32.70000076293945,17.138735,2.189,87.910965
1776327894141,-7.1310005,8.64,23.521051,26.919483,1.6401,-0.1142625,0.5918,-6.9003327,109.5175285,32.70000076293945,17.138735,2.189,87.910965
1776327894152,15.028951,11.502001,-28.809002,32.959236,0.338525,0.731775,-0.2446125,-6.9003327,109.5175285,32.70000076293945,17.138735,2.189,87.910965
1776327894167,-1.2900001,20.376001,-8.96595,24.43084,-0.2904,0.762575,-0.20955,-6.9003327,109.5175285,32.70000076293945,17.138735,2.189,87.910965
1776327894170,9.08895,1.16295,21.778051,23.787935,-0.643775,-0.1249875,0.2938375,-6.9003327,109.5175285,32.70000076293945,17.138735,2.189,87.910965
1776327894181,4.13595,3.27795,-7.0740004,11.818127,1.4144624,0.339075,-0.86294997,-6.9003327,109.5175285,32.70000076293945,17.138735,2.189,87.910965
1776327894216,2.112,20.232,-11.824051,21.186632,1.03345,0.39545,-1.213025,-6.9003327,109.5175285,32.70000076293945,17.138735,2.189,87.910965
1776327894224,-24.867,28.504951,-4.59495,34.721565,0.21725,0.83599997,-0.6309875,-6.9003327,109.5175285,32.70000076293945,17.138735,2.189,87.910965
1776327894230,-24.667952,21.05595,2.802,32.98689,0.21725,0.83599997,-0.6309875,-6.9003327,109.5175285,32.70000076293945,17.138735,2.189,87.910965
1776327894230,6.4830003,5.9340005,11.283001,18.038994,0.21725,0.83599997,-0.6309875,-6.9003327,109.5175285,32.70000076293945,17.138735,2.189,87.910965
1776327894233,26.233051,-4.86705,4.0950003,25.20232,-0.24365,-0.432575,0.81427497,-6.9003327,109.5175285,32.70000076293945,17.138735,2.189,87.910965
1776327894236,23.059052,2.811,-6.741,24.390919,0.5374875,0.2145,0.2938375,-6.9003327,109.5175285,32.70000076293945,17.138735,2.189,87.910965
1776327894241,8.10495,14.059951,-22.21305,26.886066,0.9546625,0.29755,-0.591525,-6.9003327,109.5175285,32.70000076293945,17.138735,2.189,87.910965
1776327894251,-14.463,22.82805,-13.62705,29.589539,0.51205,0.7093625,-1.0342749,-6.9003327,109.5175285,32.70000076293945,17.138735,2.189,87.910965
1776327894252,-26.317951,20.986952,16.068,35.757668,0.51205,0.7093625,-1.0342749,-6.9003327,109.5175285,32.70000076293945,17.138735,2.189,87.910965
1776327894257,-8.82495,0.85200006,28.098001,30.722408,-1.231175,0.0548625,-0.1307625,-6.9003327,109.5175285,32.70000076293945,17.138735,2.189,87.910965
1776327894264,25.27695,-10.28205,17.847,32.229393,-0.7948875,-0.9656625,0.64075,-6.9003327,109.5175285,32.70000076293945,17.138735,2.189,87.910965
1776327894267,22.638,-4.9170003,-7.7230506,25.981308,1.0846,0.3155625,0.2875125,-6.9003327,109.5175285,32.70000076293945,17.138735,2.189,87.910965
1776327894272,-4.6860003,19.617,-6.1740003,22.070452,0.8855,0.0804375,-0.9150625,-6.9003327,109.5175285,32.70000076293945,17.138735,2.189,87.910965
1776327894286,-32.197952,28.140001,14.029951,40.41771,0.3587375,0.8721625,-1.3748626,-6.9003327,109.5175285,32.70000076293945,17.138735,2.189,87.910965
1776327894286,-27.664051,18.25395,23.344051,40.515144,-0.2542375,-0.97845,0.5152125,-6.9003327,109.5175285,32.70000076293945,17.138735,2.189,87.910965
1776327894289,15.285001,4.497,6.4729505,21.861015,-0.2542375,-0.97845,0.5152125,-6.9003327,109.5175285,32.70000076293945,17.138735,2.189,87.910965
1776327894303,35.752953,-3.3700502,-15.066001,35.5272,0.618475,-0.6208125,1.008975,-6.9003327,109.5175285,32.70000076293945,17.138735,2.189,87.910965
1776327894303,24.81705,1.695,-9.325951,28.35794,0.4800125,1.073325,-1.3545125,-6.9003327,109.5175285,32.70000076293945,17.138735,2.189,87.910965
1776327894303,-8.17095,15.162001,3.2040002,19.686811,0.4800125,1.073325,-1.3545125,-6.9003327,109.5175285,32.70000076293945,17.138735,2.189,87.910965
1776327894306,-28.192951,19.221,-3.7399502,31.398188,0.4800125,1.073325,-1.3545125,-6.9003327,109.5175285,32.70000076293945,17.138735,2.189,87.910965
1776327894312,-13.03005,20.388,-10.64505,27.427044,0.2193125,-0.219725,-0.6936875,-6.9003327,109.5175285,32.70000076293945,17.138735,2.189,87.910965
1776327894319,11.11305,4.74795,-10.894051,18.501663,-0.333025,-0.45168748,0.2864125,-6.9003327,109.5175285,32.70000076293945,17.138735,2.189,87.910965
1776327894321,18.621,-3.0580502,6.01095,19.544067,-0.60335,-0.0270875,0.4343625,-6.9003327,109.5175285,32.70000076293945,17.138735,2.189,87.910965
1776327894331,7.9420505,-0.82395005,17.574001,19.351105,-0.9321125,-0.1260875,-0.3095125,-6.9003327,109.5175285,32.70000076293945,17.138735,2.189,87.910965
1776327894332,-4.57095,3.8620503,14.679001,16.551725,0.3257375,0.6859875,-0.5957875,-6.9003327,109.5175285,32.70000076293945,17.138735,2.189,87.910965
1776327894337,-12.4800005,18.558,7.695,22.231028,0.5407875,0.4433,-0.626725,-6.9003327,109.5175285,32.70000076293945,17.138735,2.189,87.910965
1776327894341,-8.04405,22.279951,-12.097051,25.724424,0.713075,0.0548625,-0.4063125,-6.9003327,109.5175285,32.70000076293945,17.138735,2.189,87.910965
1776327894351,12.37695,10.135051,-26.365952,29.816444,0.54175,-0.283525,0.207625,-6.9003327,109.5175285,32.70000076293945,17.138735,2.189,87.910965
1776327894352,20.920052,1.302,-19.903952,29.087456,0.54175,-0.283525,0.207625,-6.9003327,109.5175285,32.70000076293945,17.138735,2.189,87.910965
1776327894357,3.01005,0.37500003,-0.022950001,8.244216,-0.83215,0.33261248,-0.43725,-6.9003327,109.5175285,32.70000076293945,17.138735,2.189,87.910965
1776327894363,-16.834051,7.8570004,18.705002,22.739048,-0.7437375,0.83916247,-0.787325,-6.9003327,109.5175285,32.70000076293945,17.138735,2.189,87.910965
1776327894367,-9.009001,10.626,3.35505,16.011292,-0.0999625,0.3146,-0.508475,-6.9003327,109.5175285,32.70000076293945,17.138735,2.189,87.910965
1776327894371,7.4869504,8.382,-10.602,15.562575,0.098037496,-0.3356375,-0.018975,-6.9003327,109.5175285,32.70000076293945,17.138735,2.189,87.910965
1776327894378,5.0490003,2.832,9.32295,11.891766,-0.5649875,-0.11,-0.15413749,-6.9003327,109.5175285,32.70000076293945,17.138735,2.189,87.910965
1776327894382,-0.65505004,-3.7099502,32.562,28.601725,-1.213025,0.192225,-0.2946625,-6.9003327,109.5175285,32.70000076293945,17.138735,2.189,87.910965
1776327894387,-7.4329505,-3.2020502,33.942,33.6352,-0.5735125,0.3337125,-0.5405125,-6.9003327,109.5175285,32.70000076293945,17.138735,2.189,87.910965
1776327894392,-17.025002,9.094951,21.81105,30.027386,0.190575,-0.09735,-0.6788375,-6.9003327,109.5175285,32.70000076293945,17.138735,2.189,87.910965
1776327894397,-12.892051,16.66395,-7.1800504,23.81236,1.2324125,0.1794375,-0.2904,-6.9003327,109.5175285,32.70000076293945,17.138735,2.189,87.910965
1776327894402,4.0690503,21.994951,-17.42295,27.444897,1.0536625,-0.1579875,0.1672,-6.9003327,109.5175285,32.70000076293945,17.138735,2.189,87.910965
1776327894407,9.489,18.73995,-19.60305,28.474283,-9.625E-4,-0.5996375,0.2332,-6.9003327,109.5175285,32.70000076293945,17.138735,2.189,87.910965
1776327894412,19.49295,10.02,-14.803051,26.853395,-0.170225,-0.11,0.2278375,-6.9003327,109.5175285,32.70000076293945,17.138735,2.189,87.910965
1776327894418,17.97195,2.80605,0.16005,19.922997,-0.8811,0.1293875,0.0268125,-6.9003327,109.5175285,32.70000076293945,17.138735,2.189,87.910965
1776327894427,-0.09705,7.9459505,18.067951,19.775198,-0.9587875,0.2443375,-0.5946875,-6.9003327,109.5175285,32.70000076293945,17.138735,2.189,87.910965
1776327894428,-9.40905,9.79695,7.9009504,16.526384,-0.9587875,0.2443375,-0.5946875,-6.9003327,109.5175285,32.70000076293945,17.138735,2.189,87.910965
1776327894434,-1.4670001,8.632951,-3.7090502,10.913146,0.077825,0.09955,-0.3925625,-6.9003327,109.5175285,32.70000076293945,17.138735,2.189,87.910965
1776327894439,-5.9599504,7.8570004,2.05695,10.241791,-0.380875,-0.1142625,-0.444675,-6.9003327,109.5175285,32.70000076293945,17.138735,2.189,87.910965
1776327894457,-14.25405,4.0800004,20.841002,22.509783,-0.7044125,0.5295125,-0.3234,-6.9003327,109.5175285,32.70000076293945,17.138735,2.189,87.910965
1776327894459,-8.652,-2.69895,29.961002,29.543404,0.9004875,0.224125,-0.01155,-6.9003327,109.5175285,32.70000076293945,17.138735,2.189,87.910965
1776327894459,1.4610001,5.7829504,29.044052,29.628838,0.9004875,0.224125,-0.01155,-6.9003327,109.5175285,32.70000076293945,17.138735,2.189,87.910965
1776327894465,-2.63595,12.882001,3.58695,16.829283,0.9004875,0.224125,-0.01155,-6.9003327,109.5175285,32.70000076293945,17.138735,2.189,87.910965
1776327894472,14.526001,16.18005,-13.402051,23.799768,0.859925,-0.543125,0.0331375,-6.9003327,109.5175285,32.70000076293945,17.138735,2.189,87.910965
1776327894474,17.30595,13.579051,-13.869,25.56358,0.1607375,-0.250525,0.095975,-6.9003327,109.5175285,32.70000076293945,17.138735,2.189,87.910965
1776327894483,-1.8379501,10.923,-4.82805,14.779156,-0.0925375,0.3826625,-0.3988875,-6.9003327,109.5175285,32.70000076293945,17.138735,2.189,87.910965
1776327894485,-0.43005002,10.39095,13.555051,16.623808,-0.5746125,0.6721,-0.364925,-6.9003327,109.5175285,32.70000076293945,17.138735,2.189,87.910965
1776327894492,-3.3739502,10.302,1.7550001,12.110013,-0.37661248,0.0793375,-0.28393748,-6.9003327,109.5175285,32.70000076293945,17.138735,2.189,87.910965
1776327894494,-2.289,23.650051,-3.3619502,21.61979,0.6023875,0.2347125,-0.3020875,-6.9003327,109.5175285,32.70000076293945,17.138735,2.189,87.910965
1776327894499,1.9570501,17.57595,1.0390501,18.496016,-0.036025,0.2858625,-0.0391875,-6.9003327,109.5175285,32.70000076293945,17.138735,2.189,87.910965
1776327894503,11.187,6.9370503,19.011002,22.197893,-0.6065125,0.254925,-0.133925,-6.9003327,109.5175285,32.70000076293945,17.138735,2.189,87.910965
1776327894507,7.1299505,-2.3809502,22.86705,23.696281,-0.1786125,0.36987498,-0.593725,-6.9003327,109.5175285,32.70000076293945,17.138735,2.189,87.910965
1776327894509,-6.7270503,1.2709501,26.239052,26.43322,-0.1786125,0.36987498,-0.593725,-6.9003327,109.5175285,32.70000076293945,17.138735,2.189,87.910965
1776327894516,-23.085001,10.771951,29.466002,36.447624,-0.0254375,0.3029125,-0.8097375,-6.9003327,109.5175285,32.70000076293945,17.138735,2.189,87.910965
1776327894524,-29.209051,16.507952,30.606,43.62052,0.4907375,0.5476625,-0.5203,-6.9003327,109.5175285,32.70000076293945,17.138735,2.189,87.910965
1776327894524,-12.492001,14.833951,21.36795,31.80914,0.6589,-0.74965,0.8217,-6.9003327,109.5175285,32.70000076293945,17.138735,2.189,87.910965
1776327894530,19.414051,4.1020503,3.8359501,22.529879,0.6589,-0.74965,0.8217,-6.9003327,109.5175285,32.70000076293945,17.138735,2.189,87.910965
1776327894534,27.715052,-1.7890501,1.065,26.740494,0.64075,-0.3845875,0.6694875,-6.9003327,109.5175285,32.70000076293945,17.138735,2.189,87.910965
1776327894538,12.98595,5.3419504,2.7180002,16.790026,0.41085,-0.1111,-0.2594625,-6.9003327,109.5175285,32.70000076293945,17.138735,2.189,87.910965
1776327894543,-7.5940504,14.224951,1.45305,16.310354,1.0696125,0.745525,-0.657525,-6.9003327,109.5175285,32.70000076293945,17.138735,2.189,87.910965
1776327894552,-16.153952,20.917051,-7.3780503,25.213419,1.06425,0.4433,-0.69685,-6.9003327,109.5175285,32.70000076293945,17.138735,2.189,87.910965
1776327894553,-4.30305,15.550051,-1.812,18.031385,1.06425,0.4433,-0.69685,-6.9003327,109.5175285,32.70000076293945,17.138735,2.189,87.910965
1776327894558,9.657001,-3.3430502,-4.0009503,12.385936,-0.01485,-0.167475,0.390775,-6.9003327,109.5175285,32.70000076293945,17.138735,2.189,87.910965
1776327894563,19.560001,-8.731951,4.93305,20.062191,-0.053075,-0.3421,0.3108875,-6.9003327,109.5175285,32.70000076293945,17.138735,2.189,87.910965
1776327894568,-1.0530001,-0.10305001,6.813,9.52817,0.2385625,0.1475375,-0.4585625,-6.9003327,109.5175285,32.70000076293945,17.138735,2.189,87.910965
1776327894573,-20.254051,8.238,3.5059502,19.621307,0.715275,0.76147497,-0.721325,-6.9003327,109.5175285,32.70000076293945,17.138735,2.189,87.910965
1776327894586,-11.3869505,16.462051,-11.24205,22.29024,1.224025,0.034649998,-0.37125,-6.9003327,109.5175285,32.70000076293945,17.138735,2.189,87.910965
1776327894591,-1.659,15.53295,-16.74105,22.77591,1.224025,0.034649998,-0.37125,-6.9003327,109.5175285,32.70000076293945,17.138735,2.189,87.910965
1776327894594,13.836,8.13,-0.23595001,17.394808,-0.0510125,-0.5421625,0.308825,-6.9003327,109.5175285,32.70000076293945,17.138735,2.189,87.910965
1776327894599,23.196001,-5.07,8.677051,23.702522,-0.5883625,-0.1111,0.472725,-6.9003327,109.5175285,32.70000076293945,17.138735,2.189,87.910965
1776327894603,15.879001,4.35795,10.17405,20.225119,-0.14355,-0.29205,-0.2360875,-6.9003327,109.5175285,32.70000076293945,17.138735,2.189,87.910965
1776327894608,-4.24305,11.536051,-14.458051,19.226469,1.1270875,0.646525,-0.79695,-6.9003327,109.5175285,32.70000076293945,17.138735,2.189,87.910965
1776327894619,-8.98305,23.48895,-20.095951,29.598253,1.10165,0.339075,-0.6191625,-6.9003327,109.5175285,32.70000076293945,17.138735,2.189,87.910965
1776327894620,-15.775051,25.744951,-19.773,34.793182,0.44605,0.2921875,-0.642675,-6.9003327,109.5175285,32.70000076293945,17.138735,2.189,87.910965
1776327894627,-0.057000004,16.338001,-4.8520503,20.59332,-0.4244625,-0.0738375,0.1139875,-6.9003327,109.5175285,32.70000076293945,17.138735,2.189,87.910965
1776327894627,25.549952,-1.3120501,0.59805006,24.59115,-0.7671125,-0.462275,0.6908,-6.9003327,109.5175285,32.70000076293945,17.138735,2.189,87.910965
1776327894635,27.74595,-9.118051,6.1330504,28.792446,-0.043449998,0.4444,-0.67347497,-6.9003327,109.5175285,32.70000076293945,17.138735,2.189,87.910965
1776327894639,1.5330001,0.30105,7.0939503,11.569643,-0.043449998,0.4444,-0.67347497,-6.9003327,109.5175285,32.70000076293945,17.138735,2.189,87.910965
1776327894652,-25.87005,19.726952,6.6979504,28.886393,0.601425,1.1532125,-1.1917125,-6.9003327,109.5175285,32.70000076293945,17.138735,2.189,87.910965
1776327894652,-30.26295,24.89805,0.18900001,37.12865,-0.2308625,-0.3548875,-0.120037496,-6.9003327,109.5175285,32.70000076293945,17.138735,2.189,87.910965
1776327894655,-12.36705,13.756051,1.6789501,22.284893,-0.2308625,-0.3548875,-0.120037496,-6.9003327,109.5175285,32.70000076293945,17.138735,2.189,87.910965
1776327894659,15.841051,-4.287,7.2829504,18.820457,-0.9321125,-0.560175,0.4961,-6.9003327,109.5175285,32.70000076293945,17.138735,2.189,87.910965
1776327894664,21.993002,-6.7830005,21.670052,29.05336,-0.9321125,-0.560175,0.4961,-6.9003327,109.5175285,32.70000076293945,17.138735,2.189,87.910965
1776327894669,4.6009502,4.1350503,18.92295,21.737413,-0.0254375,0.1145375,-0.2360875,-6.9003327,109.5175285,32.70000076293945,17.138735,2.189,87.910965
1776327894670,-2.9980502,13.144951,-9.89295,17.72564,-0.0254375,0.1145375,-0.2360875,-6.9003327,109.5175285,32.70000076293945,17.138735,2.189,87.910965
1776327894674,8.884951,14.175001,-45.459003,42.296803,1.3325125,-0.3675375,-0.230725,-6.9003327,109.5175285,32.70000076293945,17.138735,2.189,87.910965
1776327894687,14.67195,13.49505,-64.29405,62.31016,0.7940625,-0.383625,-0.10945,-6.9003327,109.5175285,32.70000076293945,17.138735,2.189,87.910965
1776327894687,15.991051,3.8719501,-47.932953,53.00454,-0.4010875,0.0858,-0.0594,-6.9003327,109.5175285,32.70000076293945,17.138735,2.189,87.910965
1776327894690,6.2839503,-6.4879503,-3.9250503,18.479488,-2.114475,0.7264125,-0.31913748,-6.9003327,109.5175285,32.70000076293945,17.138735,2.189,87.910965
1776327894695,-11.09805,-4.833,42.882004,39.342075,-2.834975,0.7849875,-0.819225,-6.9003327,109.5175285,32.70000076293945,17.138735,2.189,87.910965
1776327894705,-16.45095,-3.8059502,39.57495,42.28977,-0.0999625,0.19965,-0.396825,-6.9003327,109.5175285,32.70000076293945,17.138735,2.189,87.910965
1776327894706,-5.8570504,9.238951,22.75905,28.659145,0.028875,-0.2803625,-0.8490625,-6.9003327,109.5175285,32.70000076293945,17.138735,2.189,87.910965
1776327894710,-14.70495,20.15805,31.053001,37.600273,0.028875,-0.2803625,-0.8490625,-6.9003327,109.5175285,32.70000076293945,17.138735,2.189,87.910965
1776327894721,-28.729952,14.791051,54.75495,58.38326,-0.979,0.36355,-0.544775,-6.9003327,109.5175285,32.70000076293945,17.138735,2.189,87.910965
1776327894721,-8.691,13.548,45.79695,50.511215,1.1845624,-0.5963375,0.3779875,-6.9003327,109.5175285,32.70000076293945,17.138735,2.189,87.910965
1776327894726,10.725,22.840052,-1.7170501,30.335157,2.17745,-1.0912,-0.0061875,-6.9003327,109.5175285,32.70000076293945,17.138735,2.189,87.910965
1776327894730,16.77705,33.61095,-36.99795,48.247704,2.17745,-1.0912,-0.0061875,-6.9003327,109.5175285,32.70000076293945,17.138735,2.189,87.910965
1776327894736,22.956001,24.514051,-37.42905,49.879684,0.4992625,-0.6708625,0.2204125,-6.9003327,109.5175285,32.70000076293945,17.138735,2.189,87.910965
1776327894740,12.484951,16.69905,5.3260503,27.191727,-0.7704125,0.5773625,-0.27225,-6.9003327,109.5175285,32.70000076293945,17.138735,2.189,87.910965
1776327894746,-30.231,17.254951,73.54305,70.530174,-2.7380376,1.4361875,-1.0533875,-6.9003327,109.5175285,32.70000076293945,17.138735,2.189,87.910965
1776327894751,-33.225002,8.571,70.03005,76.493576,-1.2332375,0.5391375,-1.0033375,-6.9003327,109.5175285,32.70000076293945,17.138735,2.189,87.910965
1776327894756,5.0269504,5.74905,25.128,36.30901,0.5982625,-0.6804875,0.1991,-6.9003327,109.5175285,32.70000076293945,17.138735,2.189,87.910965
1776327894760,1.57305,17.229,5.1439505,21.70115,1.6039375,-0.576125,0.256575,-6.9003327,109.5175285,32.70000076293945,17.138735,2.189,87.910965
1776327894765,-18.92505,21.43695,11.083951,28.874998,1.089825,0.3730375,-0.37345,-6.9003327,109.5175285,32.70000076293945,17.138735,2.189,87.910965
1776327894772,-5.44995,11.895,23.298,27.15147,-0.27445,-0.7231125,-0.0647625,-6.9003327,109.5175285,32.70000076293945,17.138735,2.189,87.910965
1776327894777,8.581051,-2.4450002,22.29705,24.643139,0.21835,-0.168575,0.5929,-6.9003327,109.5175285,32.70000076293945,17.138735,2.189,87.910965
1776327894785,8.03505,-3.9130502,14.323951,18.435356,0.4833125,-0.23773749,0.3991625,-6.9003327,109.5175285,32.70000076293945,17.138735,2.189,87.910965
1776327894785,14.161951,3.8719501,-5.5459504,16.242495,0.4833125,-0.23773749,0.3991625,-6.9003327,109.5175285,32.70000076293945,17.138735,2.189,87.910965
1776327894792,2.2420502,10.254001,-18.53895,20.291765,1.6071,0.385825,-0.070125,-6.9003327,109.5175285,32.70000076293945,17.138735,2.189,87.910965
1776327894801,-23.310001,17.70495,-3.3310502,27.626703,0.8419125,0.7445625,-0.5127375,-6.9003327,109.5175285,32.70000076293945,17.138735,2.189,87.910965
1776327894802,-19.28895,8.42895,0.94305,22.382391,0.4087875,-0.20899999,0.7781125,-6.9003327,109.5175285,32.70000076293945,17.138735,2.189,87.910965
1776327894805,4.6870503,6.1710005,-9.14595,14.066408,0.4087875,-0.20899999,0.7781125,-6.9003327,109.5175285,32.70000076293945,17.138735,2.189,87.910965
1776327894810,14.712001,12.799951,-25.56405,28.53552,1.1185625,-0.3686375,0.7876,-6.9003327,109.5175285,32.70000076293945,17.138735,2.189,87.910965
1776327894817,30.847952,14.701951,-30.06405,42.11889,0.7035875,-0.72833747,0.8845375,-6.9003327,109.5175285,32.70000076293945,17.138735,2.189,87.910965
1776327894827,35.779053,4.45095,-22.017,42.220345,0.0149875,0.111237496,0.8897625,-6.9003327,109.5175285,32.70000076293945,17.138735,2.189,87.910965
1776327894828,14.55405,-1.1020501,-8.24505,21.854889,-0.43614998,1.1350625,0.0598125,-6.9003327,109.5175285,32.70000076293945,17.138735,2.189,87.910965
1776327894835,-17.859001,9.89505,2.943,20.873432,-0.43614998,1.1350625,0.0598125,-6.9003327,109.5175285,32.70000076293945,17.138735,2.189,87.910965
1776327894839,-39.049953,19.13805,14.506051,40.849163,-0.27555,1.034,-1.2354375,-6.9003327,109.5175285,32.70000076293945,17.138735,2.189,87.910965
1776327894845,-31.407001,11.790001,21.06405,39.859306,-0.2116125,0.61036247,-0.5075125,-6.9003327,109.5175285,32.70000076293945,17.138735,2.189,87.910965
1776327894850,5.736,3.8719501,20.592001,25.350914,-0.804375,-0.61765,0.781275,-6.9003327,109.5175285,32.70000076293945,17.138735,2.189,87.910965
1776327894854,25.480051,-10.48095,-10.738951,28.7265,0.683375,-0.1483625,1.286725,-6.9003327,109.5175285,32.70000076293945,17.138735,2.189,87.910965
1776327894859,26.28,-1.5450001,0.80205005,26.815374,0.1566125,-0.20047499,0.6461125,-6.9003327,109.5175285,32.70000076293945,17.138735,2.189,87.910965
1776327894866,-7.32495,12.417001,15.43605,22.2601,0.3971,1.3149124,-0.6799375,-6.9003327,109.5175285,32.70000076293945,17.138735,2.189,87.910965
1776327894871,-31.01505,5.14305,8.79405,30.568312,0.3971,1.3149124,-0.6799375,-6.9003327,109.5175285,32.70000076293945,17.138735,2.189,87.910965
1776327894878,-2.9670002,7.4830503,17.43495,21.47651,0.0895125,0.0900625,-0.036025,-6.9003327,109.5175285,32.70000076293945,17.138735,2.189,87.910965
1776327894887,1.33395,4.12995,13.666051,15.766222,0.0171875,0.1485,0.8014875,-6.9003327,109.5175285,32.70000076293945,17.138735,2.189,87.910965
1776327894891,13.46895,-4.848,8.278951,16.382467,0.77907497,0.111237496,0.6620625,-6.9003327,109.5175285,32.70000076293945,17.138735,2.189,87.910965
1776327894897,32.496002,-18.54,4.677,33.43974,-0.186175,-0.2239875,0.6397875,-6.9003327,109.5175285,32.70000076293945,17.138735,2.189,87.910965
1776327894897,6.0349503,-5.82,-0.0019500001,13.395224,-0.186175,-0.2239875,0.6397875,-6.9003327,109.5175285,32.70000076293945,17.138735,2.189,87.910965
1776327894902,-36.435,13.708051,6.7660503,34.28866,1.647525,1.83205,-1.1672375,-6.9003327,109.5175285,32.70000076293945,17.138735,2.189,87.910965
1776327894906,-36.577953,22.524,27.973051,47.867146,0.2267375,0.1293875,-1.051325,-6.9003327,109.5175285,32.70000076293945,17.138735,2.189,87.910965
1776327894906,-5.1919503,7.1839504,19.51905,26.723288,0.2267375,0.1293875,-1.051325,-6.9003327,109.5175285,32.70000076293945,17.138735,2.189,87.910965
1776327894912,35.025,-17.61495,-9.352051,37.588707,0.93445,-0.80602497,1.5379375,-6.9003327,109.5175285,32.70000076293945,17.138735,2.189,87.910965
1776327894922,46.423054,-17.730001,-17.35605,49.627583,1.5208875,0.9455875,0.01925,-6.9003327,109.5175285,32.70000076293945,17.138735,2.189,87.910965
1776327894924,16.734001,-3.075,-26.014051,34.792694,1.5208875,0.9455875,0.01925,-6.9003327,109.5175285,32.70000076293945,17.138735,2.189,87.910965
1776327894926,-27.240002,35.356953,-13.093051,44.169804,1.5208875,0.9455875,0.01925,-6.9003327,109.5175285,32.70000076293945,17.138735,2.189,87.910965
1776327894931,-40.141953,41.85705,-17.674952,57.336617,0.2278375,-1.0880375,-0.89485,-6.9003327,109.5175285,32.70000076293945,17.138735,2.189,87.910965
1776327894937,-5.7780004,21.92505,-31.18995,42.315666,0.2278375,-1.0880375,-0.89485,-6.9003327,109.5175285,32.70000076293945,17.138735,2.189,87.910965
1776327894942,36.888,7.0189505,-35.15295,49.61239,-0.74593747,-1.379675,0.9898625,-6.9003327,109.5175285,32.70000076293945,17.138735,2.189,87.910965
1776327894954,43.347004,21.05595,-17.938051,51.059048,-0.2190375,-1.165725,0.9483375,-6.9003327,109.5175285,32.70000076293945,17.138735,2.189,87.910965
1776327894958,21.366001,30.358051,-15.699,42.456635,0.095837496,-0.8933375,-1.018325,-6.9003327,109.5175285,32.70000076293945,17.138735,2.189,87.910965
1776327894958,15.085951,28.36605,-61.084053,63.70571,0.095837496,-0.8933375,-1.018325,-6.9003327,109.5175285,32.70000076293945,17.138735,2.189,87.910965
1776327894962,31.506002,7.05,-78.420006,80.5858,0.095837496,-0.8933375,-1.018325,-6.9003327,109.5175285,32.70000076293945,17.138735,2.189,87.910965
1776327894968,15.165001,-1.521,-38.940002,49.570312,-1.5270749,0.5412,-0.86817497,-6.9003327,109.5175285,32.70000076293945,17.138735,2.189,87.910965
1776327894972,-33.196053,-7.5780005,40.143,52.025265,-4.29825,0.36355,-2.6486626,-6.9003327,109.5175285,32.70000076293945,17.138735,2.189,87.910965
1776327894978,-42.24,0.58605003,78.537,81.74703,-4.29825,0.36355,-2.6486626,-6.9003327,109.5175285,32.70000076293945,17.138735,2.189,87.910965
1776327894987,-10.816951,24.65295,13.267951,40.360245,0.109725,-0.9411875,-1.5015,-6.9003327,109.5175285,32.70000076293945,17.138735,2.189,87.910965
1776327894989,18.48195,25.525051,-72.151955,71.05911,3.8003626,-1.9745,0.012925,-6.9003327,109.5175285,32.70000076293945,17.138735,2.189,87.910965
1776327894996,21.54495,9.991051,-7.3759503,34.106117,-0.5852,-0.2877875,0.28861248,-6.9003327,109.5175285,32.70000076293945,17.138735,2.189,87.910965
1776327895003,-41.40705,-26.31405,78.537,80.902405,-6.171275,1.7628875,-1.3066624,-6.9003327,109.5175285,32.70000076293945,17.138735,2.189,87.910965
1776327895009,-62.854053,-51.50505,78.537,106.589195,-5.2644625,1.417075,-2.6316125,-6.9003327,109.5175285,32.70000076293945,17.138735,2.189,87.910965
1776327895022,-18.984001,-23.437952,68.88496,81.47692,-0.985325,-2.77805,-1.76,-6.9003327,109.5175285,32.70000076293945,17.138735,2.189,87.910965
1776327895022,16.98105,7.3090506,20.83905,38.581444,-0.985325,-2.77805,-1.76,-6.9003327,109.5175285,32.70000076293945,17.138735,2.189,87.910965
1776327895026,4.4040003,35.07405,-7.7470503,36.66702,5.90755,1.026575,1.1793375,-6.9003327,109.5175285,32.70000076293945,17.138735,2.189,87.910965
1776327895026,6.1650004,49.95,-19.31295,50.45927,5.90755,1.026575,1.1793375,-6.9003327,109.5175285,32.70000076293945,17.138735,2.189,87.910965
1776327895032,8.064,27.838951,-48.376053,55.207016,1.7422625,-2.1289124,-0.43725,-6.9003327,109.5175285,32.70000076293945,17.138735,2.189,87.910965
1776327895037,9.8220005,19.675951,-14.764951,32.23187,-0.9662125,-0.579425,-0.3658875,-6.9003327,109.5175285,32.70000076293945,17.138735,2.189,87.910965
1776327895042,14.089951,2.7960002,-5.7910504,18.836838,-0.7756375,-0.3760625,-0.30525,-6.9003327,109.5175285,32.70000076293945,17.138735,2.189,87.910965
1776327895049,29.431952,-1.38405,5.8050003,27.792068,-0.50325,-0.32395,0.521675,-6.9003327,109.5175285,32.70000076293945,17.138735,2.189,87.910965
1776327895054,13.1959505,16.53705,-4.2840004,22.827295,0.258775,0.125125,-0.444675,-6.9003327,109.5175285,32.70000076293945,17.138735,2.189,87.910965
1776327895057,-16.591951,14.83905,-24.550951,31.077217,0.9537,0.60513747,-1.4386625,-6.9003327,109.5175285,32.70000076293945,17.138735,2.189,87.910965
1776327895068,-22.918951,22.46895,-24.67995,38.60539,0.4087875,0.7338375,-1.0448625,-6.9003327,109.5175285,32.70000076293945,17.138735,2.189,87.910965
1776327895072,-30.289051,29.920052,-7.017,42.24063,-0.267025,-0.2536875,-1.0225875,-6.9003327,109.5175285,32.70000076293945,17.138735,2.189,87.910965
1776327895072,-27.135002,14.149051,20.247002,37.80328,-0.267025,-0.2536875,-1.0225875,-6.9003327,109.5175285,32.70000076293945,17.138735,2.189,87.910965
1776327895076,22.906052,-6.0330005,28.551,37.23887,-1.6770875,-1.1891,0.9079125,-6.9003327,109.5175285,32.70000076293945,17.138735,2.189,87.910965
1776327895078,48.592052,-14.646001,8.61495,48.629597,-0.8097375,-1.3211,1.2824625,-6.9003327,109.5175285,32.70000076293945,17.138735,2.189,87.910965
1776327895087,31.58805,-7.1179504,-8.823,36.574417,0.6205375,-0.22605,0.3003,-6.9003327,109.5175285,32.70000076293945,17.138735,2.189,87.910965
1776327895093,-4.4560504,15.93105,-0.07095,20.549017,0.862125,0.960575,-1.1066,-6.9003327,109.5175285,32.70000076293945,17.138735,2.189,87.910965
1776327895102,-40.458,19.99695,6.46395,40.582348,-0.267025,0.764775,-2.097425,-6.9003327,109.5175285,32.70000076293945,17.138735,2.189,87.910965
1776327895105,-36.022953,-2.11695,-2.265,37.041363,-0.091437496,0.2369125,-1.346125,-6.9003327,109.5175285,32.70000076293945,17.138735,2.189,87.910965
1776327895109,-3.7069502,-10.573951,29.848951,32.914474,-1.687675,-1.0731875,-0.0605,-6.9003327,109.5175285,32.70000076293945,17.138735,2.189,87.910965
1776327895117,7.2420006,-9.313951,44.01105,43.034893,-0.590425,-0.5080625,0.6131125,-6.9003327,109.5175285,32.70000076293945,17.138735,2.189,87.910965
1776327895120,12.94995,17.964,23.75805,34.58976,0.9238625,-0.3196875,0.48014998,-6.9003327,109.5175285,32.70000076293945,17.138735,2.189,87.910965
1776327895128,21.949951,36.64305,-30.972002,49.127174,2.5106125,-1.066725,0.0576125,-6.9003327,109.5175285,32.70000076293945,17.138735,2.189,87.910965
1776327895140,33.35295,34.734,-60.054005,71.40649,2.0913749,-1.410475,0.23539999,-6.9003327,109.5175285,32.70000076293945,17.138735,2.189,87.910965
1776327895142,20.056051,24.19305,-26.869051,47.35813,2.0913749,-1.410475,0.23539999,-6.9003327,109.5175285,32.70000076293945,17.138735,2.189,87.910965
1776327895142,-31.951052,2.538,37.021954,48.646606,2.0913749,-1.410475,0.23539999,-6.9003327,109.5175285,32.70000076293945,17.138735,2.189,87.910965
1776327895154,-45.9,-6.9739504,69.47205,76.57512,-2.7636125,0.52415,-1.9591,-6.9003327,109.5175285,32.70000076293945,17.138735,2.189,87.910965
1776327895157,-24.426,17.722052,25.792051,47.073418,1.7880499,-1.40525,-0.4010875,-6.9003327,109.5175285,32.70000076293945,17.138735,2.189,87.910965
1776327895161,-0.69105005,23.968052,-48.736053,52.866898,3.1161625,-0.5911125,0.9961875,-6.9003327,109.5175285,32.70000076293945,17.138735,2.189,87.910965
1776327895167,24.099,15.784951,-35.86005,47.37225,-0.53405,-1.07745,1.0494,-6.9003327,109.5175285,32.70000076293945,17.138735,2.189,87.910965
1776327895171,22.09605,8.082001,22.081951,35.288143,-2.129325,0.2825625,0.028875,-6.9003327,109.5175285,32.70000076293945,17.138735,2.189,87.910965
1776327895171,-20.304,-1.3770001,56.20605,54.879086,-1.1726,0.581625,-0.919325,-6.9003327,109.5175285,32.70000076293945,17.138735,2.189,87.910965
1776327895178,-12.331051,-9.642,38.547,44.259033,0.2044625,-0.6039,-0.2190375,-6.9003327,109.5175285,32.70000076293945,17.138735,2.189,87.910965
1776327895184,15.262951,3.9910502,13.828051,25.634678,1.337875,-0.71885,-0.01375,-6.9003327,109.5175285,32.70000076293945,17.138735,2.189,87.910965
1776327895191,-12.975,17.497051,-11.517,24.839085,2.154075,0.7327375,-0.330825,-6.9003327,109.5175285,32.70000076293945,17.138735,2.189,87.910965
1776327895191,-12.372001,24.421051,-15.330001,30.06874,2.154075,0.7327375,-0.330825,-6.9003327,109.5175285,32.70000076293945,17.138735,2.189,87.910965
1776327895203,4.9549503,21.973051,3.4720502,24.246407,-0.7129375,-0.7326,0.28325,-6.9003327,109.5175285,32.70000076293945,17.138735,2.189,87.910965
1776327895207,-3.58695,-0.85995007,15.562051,17.64386,-0.2255,0.386925,0.436425,-6.9003327,109.5175285,32.70000076293945,17.138735,2.189,87.910965
1776327895214,17.412,-8.3869505,10.011001,20.941208,0.2693625,-0.7539125,0.3939375,-6.9003327,109.5175285,32.70000076293945,17.138735,2.189,87.910965
1776327895222,19.299002,9.627001,-10.486951,23.37335,1.1930875,-0.5985375,-0.5203,-6.9003327,109.5175285,32.70000076293945,17.138735,2.189,87.910965
1776327895227,-15.733951,22.98195,-28.909952,36.789593,1.600775,0.6518875,-0.8789,-6.9003327,109.5175285,32.70000076293945,17.138735,2.189,87.910965
1776327895229,-18.74295,14.592001,-28.917002,37.295647,-0.0721875,-0.143,-0.3020875,-6.9003327,109.5175285,32.70000076293945,17.138735,2.189,87.910965
1776327895238,-6.19995,13.858951,0.95295006,19.629074,-1.2024375,-0.825275,-0.0796125,-6.9003327,109.5175285,32.70000076293945,17.138735,2.189,87.910965
1776327895238,-12.043951,7.38,15.8880005,20.933104,-1.2024375,-0.825275,-0.0796125,-6.9003327,109.5175285,32.70000076293945,17.138735,2.189,87.910965
1776327895242,16.903952,-7.6429505,4.05405,19.378063,-0.0658625,-0.9625,0.90475,-6.9003327,109.5175285,32.70000076293945,17.138735,2.189,87.910965
1776327895254,37.729053,-2.66805,-2.5170002,34.201157,-0.119075,-1.1721874,0.2662,-6.9003327,109.5175285,32.70000076293945,17.138735,2.189,87.910965
1776327895254,9.336,3.7860003,-7.0740004,16.688234,0.7929625,1.0223125,-0.6447375,-6.9003327,109.5175285,32.70000076293945,17.138735,2.189,87.910965
1776327895257,-20.211,13.465951,13.58205,25.598478,-0.267025,0.64556247,-0.9981125,-6.9003327,109.5175285,32.70000076293945,17.138735,2.189,87.910965
1776327895262,-29.13705,12.036,20.77605,35.32409,-0.3447125,-0.2963125,-0.6681125,-6.9003327,109.5175285,32.70000076293945,17.138735,2.189,87.910965
1776327895268,-21.339,6.4510503,22.438951,32.369053,-0.10835,-0.4038375,0.22687499,-6.9003327,109.5175285,32.70000076293945,17.138735,2.189,87.910965
1776327895268,-0.018000001,0.54,21.250952,23.480064,0.307725,-0.725175,0.796125,-6.9003327,109.5175285,32.70000076293945,17.138735,2.189,87.910965
1776327895273,24.562952,-2.8330503,-0.23895001,24.47757,0.7621625,-1.2871375,0.683375,-6.9003327,109.5175285,32.70000076293945,17.138735,2.189,87.910965
1776327895276,28.198952,-1.8679501,-29.740952,37.71692,1.2271875,-0.6389625,-0.0328625,-6.9003327,109.5175285,32.70000076293945,17.138735,2.189,87.910965
1776327895277,12.777,9.07905,-33.100952,36.842983,1.0824,-0.332475,-0.43505,-6.9003327,109.5175285,32.70000076293945,17.138735,2.189,87.910965
1776327895284,-26.296051,16.443,-5.28795,32.53768,-0.411675,1.0115875,-1.2577125,-6.9003327,109.5175285,32.70000076293945,17.138735,2.189,87.910965
1776327895292,-36.672,16.24395,7.827,39.199688,-0.4756125,-0.4389,-0.59894997,-6.9003327,109.5175285,32.70000076293945,17.138735,2.189,87.910965
1776327895294,1.1179501,10.288051,-5.0220003,17.042173,-0.1637625,-1.2189375,0.9153375,-6.9003327,109.5175285,32.70000076293945,17.138735,2.189,87.910965
1776327895300,30.025951,-3.8850002,-33.391052,39.467175,0.3906375,-0.8443875,1.10165,-6.9003327,109.5175285,32.70000076293945,17.138735,2.189,87.910965
1776327895302,34.73205,-1.011,-13.1959505,37.62795,-1.0374374,-0.19305,0.3598375,-6.9003327,109.5175285,32.70000076293945,17.138735,2.189,87.910965
1776327895307,-2.08005,5.6850004,29.695051,31.770237,-1.09285,1.2244375,-0.99495,-6.9003327,109.5175285,32.70000076293945,17.138735,2.189,87.910965
1776327895316,-43.224003,8.611051,49.902004,59.61672,-0.6479,0.85305,-1.313125,-6.9003327,109.5175285,32.70000076293945,17.138735,2.189,87.910965
1776327895318,-27.523052,9.991051,11.280001,37.025734,0.9175375,-1.0795125,-0.2212375,-6.9003327,109.5175285,32.70000076293945,17.138735,2.189,87.910965
1776327895324,7.8100505,11.478001,-46.920002,46.549828,1.8327374,-0.9838125,1.1037124,-6.9003327,109.5175285,32.70000076293945,17.138735,2.189,87.910965
1776327895327,23.24805,12.604051,-65.497955,65.81803,1.8327374,-0.9838125,1.1037124,-6.9003327,109.5175285,32.70000076293945,17.138735,2.189,87.910965
1776327895333,22.980001,11.932951,-30.39495,45.106842,-1.689875,0.320925,0.3598375,-6.9003327,109.5175285,32.70000076293945,17.138735,2.189,87.910965
1776327895338,-6.22905,4.176,23.764952,28.957474,-2.7539876,1.0201125,-0.508475,-6.9003327,109.5175285,32.70000076293945,17.138735,2.189,87.910965
1776327895343,-18.649052,-7.9830003,49.147953,48.327404,-1.8739874,0.10175,-0.17545,-6.9003327,109.5175285,32.70000076293945,17.138735,2.189,87.910965
1776327895354,15.56805,-9.457951,8.113951,25.618477,0.599225,-0.9306,0.5471125,-6.9003327,109.5175285,32.70000076293945,17.138735,2.189,87.910965
1776327895357,17.92695,0.90405005,-54.784954,51.24412,-0.036025,0.043175,-0.3350875,-6.9003327,109.5175285,32.70000076293945,17.138735,2.189,87.910965
1776327895359,6.0469503,18.289951,-63.769054,63.54096,-0.036025,0.043175,-0.3350875,-6.9003327,109.5175285,32.70000076293945,17.138735,2.189,87.910965
1776327895368,1.056,23.920052,-14.56305,35.127705,-2.3379126,0.68488747,-0.3339875,-6.9003327,109.5175285,32.70000076293945,17.138735,2.189,87.910965
1776327895372,-18.775951,13.444951,55.468052,55.092213,-3.9012876,0.746625,-0.0955625,-6.9003327,109.5175285,32.70000076293945,17.138735,2.189,87.910965
1776327895372,-6.3120003,-42.44895,59.78205,69.89131,-3.9012876,0.746625,-0.0955625,-6.9003327,109.5175285,32.70000076293945,17.138735,2.189,87.910965
1776327895378,7.08405,-15.714001,78.537,78.303314,-1.1737,-0.3878875,-0.31913748,-6.9003327,109.5175285,32.70000076293945,17.138735,2.189,87.910965
1776327895385,-39.98205,24.823051,34.153053,62.17899,3.905825,0.6934125,-1.5345,-6.9003327,109.5175285,32.70000076293945,17.138735,2.189,87.910965
1776327895391,-39.333,51.15195,-42.645,74.31156,3.0118,-0.4932125,-0.4096125,-6.9003327,109.5175285,32.70000076293945,17.138735,2.189,87.910965
1776327895395,5.2519503,41.03295,-45.433052,64.01805,-0.0647625,-1.8478625,1.4986125,-6.9003327,109.5175285,32.70000076293945,17.138735,2.189,87.910965
1776327895399,39.345,8.884951,-32.13105,54.05892,-1.5333999,-1.07745,2.0945375,-6.9003327,109.5175285,32.70000076293945,17.138735,2.189,87.910965
1776327895403,43.66305,-3.5730002,6.83505,46.28298,-2.26875,0.2347125,1.156925,-6.9003327,109.5175285,32.70000076293945,17.138735,2.189,87.910965
1776327895407,27.67695,1.7020501,34.383003,44.593616,-1.065075,1.186075,-0.3425125,-6.9003327,109.5175285,32.70000076293945,17.138735,2.189,87.910965
1776327895419,-21.77205,10.795951,43.591053,48.844692,1.26555,-0.49101248,0.0033,-6.9003327,109.5175285,32.70000076293945,17.138735,2.189,87.910965
1776327895419,-45.84495,26.428051,60.021004,73.78255,1.26555,-0.49101248,0.0033,-6.9003327,109.5175285,32.70000076293945,17.138735,2.189,87.910965
1776327895426,-32.24805,26.63895,12.625951,49.71006,0.9090125,-0.8762875,1.4124,-6.9003327,109.5175285,32.70000076293945,17.138735,2.189,87.910965
1776327895427,9.307051,14.544001,-30.972002,38.31004,0.9090125,-0.8762875,1.4124,-6.9003327,109.5175285,32.70000076293945,17.138735,2.189,87.910965
1776327895433,38.811,18.85695,-8.643001,42.86728,-0.99275,-1.3498375,1.090925,-6.9003327,109.5175285,32.70000076293945,17.138735,2.189,87.910965
1776327895438,3.3070502,12.726001,51.675003,51.23074,-1.5206125,2.32265,0.069299996,-6.9003327,109.5175285,32.70000076293945,17.138735,2.189,87.910965
1776327895443,-44.058002,9.77295,78.537,82.70989,-0.17655,-1.1636626,0.0831875,-6.9003327,109.5175285,32.70000076293945,17.138735,2.189,87.910965
1776327895453,-29.724,3.3330002,75.507,81.51426,3.5800874,-1.0817125,1.2782,-6.9003327,109.5175285,32.70000076293945,17.138735,2.189,87.910965
1776327895454,7.42395,5.39295,16.990051,31.750534,3.5800874,-1.0817125,1.2782,-6.9003327,109.5175285,32.70000076293945,17.138735,2.189,87.910965
1776327895459,22.38105,19.425001,-53.49,55.27076,4.4644876,-0.20693749,1.3814625,-6.9003327,109.5175285,32.70000076293945,17.138735,2.189,87.910965
1776327895464,26.970001,37.35195,-58.021053,70.32433,1.419825,-0.8965,0.5291,-6.9003327,109.5175285,32.70000076293945,17.138735,2.189,87.910965
1776327895469,6.6649504,30.12795,-16.12305,41.91668,-1.441825,1.0201125,-0.4723125,-6.9003327,109.5175285,32.70000076293945,17.138735,2.189,87.910965
1776327895473,-38.571003,6.135,69.43605,72.11641,-0.63195,-1.524325,0.1225125,-6.9003327,109.5175285,32.70000076293945,17.138735,2.189,87.910965
1776327895479,-23.604002,-10.552051,78.537,80.57005,-0.63195,-1.524325,0.1225125,-6.9003327,109.5175285,32.70000076293945,17.138735,2.189,87.910965
1776327895487,21.538052,2.25495,24.441002,42.23784,3.09595,-1.9160625,1.06865,-6.9003327,109.5175285,32.70000076293945,17.138735,2.189,87.910965
1776327895489,23.719952,12.12495,-65.637,65.11709,5.4946375,-0.5038,0.9835375,-6.9003327,109.5175285,32.70000076293945,17.138735,2.189,87.910965
1776327895494,31.951952,30.661951,-78.420006,85.07131,2.074325,-1.0945,0.6153125,-6.9003327,109.5175285,32.70000076293945,17.138735,2.189,87.910965
1776327895499,19.021051,30.478052,-49.069054,65.6664,-0.3542,0.5764,-0.3914625,-6.9003327,109.5175285,32.70000076293945,17.138735,2.189,87.910965
1776327895504,-16.68795,1.3789501,-10.2640505,28.84549,-2.2804375,1.60325,-0.90337497,-6.9003327,109.5175285,32.70000076293945,17.138735,2.189,87.910965
1776327895508,-19.858952,-22.410002,45.883053,49.600346,-2.9679375,-0.58795,-0.4882625,-6.9003327,109.5175285,32.70000076293945,17.138735,2.189,87.910965
1776327895514,-7.9630504,-19.491001,58.22505,59.452065,3.526875,-0.4123625,-0.165825,-6.9003327,109.5175285,32.70000076293945,17.138735,2.189,87.910965
1776327895522,-18.004951,1.6009501,0.93600005,26.370577,3.526875,-0.4123625,-0.165825,-6.9003327,109.5175285,32.70000076293945,17.138735,2.189,87.910965
1776327895524,3.8100002,18.76605,-41.35905,41.73562,2.14775,-0.94765,0.5141125,-6.9003327,109.5175285,32.70000076293945,17.138735,2.189,87.910965
1776327895528,12.898951,13.128,-28.219952,35.30004,-0.2275625,-0.80079997,0.1332375,-6.9003327,109.5175285,32.70000076293945,17.138735,2.189,87.910965
1776327895534,-8.058001,-1.53795,27.556952,30.061676,-1.4685,0.6444625,-0.001925,-6.9003327,109.5175285,32.70000076293945,17.138735,2.189,87.910965
1776327895539,-14.38605,-6.8640003,39.51705,40.100883,0.258775,-0.3441625,0.0831875,-6.9003327,109.5175285,32.70000076293945,17.138735,2.189,87.910965
1776327895543,10.9810505,-1.84905,0.11895001,16.929195,1.5123625,-1.1583,0.3449875,-6.9003327,109.5175285,32.70000076293945,17.138735,2.189,87.910965
1776327895553,8.28405,11.500051,-30.718052,30.449915,2.123275,-0.4527875,-0.0584375,-6.9003327,109.5175285,32.70000076293945,17.138735,2.189,87.910965
1776327895556,-0.85695004,16.96305,-32.917053,35.722527,0.994125,0.2167,0.16293749,-6.9003327,109.5175285,32.70000076293945,17.138735,2.189,87.910965
1776327895559,0.82395005,10.908001,-16.37895,22.901325,-0.59688747,-0.528275,0.031075,-6.9003327,109.5175285,32.70000076293945,17.138735,2.189,87.910965
1776327895565,-1.4790001,-4.02105,21.993002,22.505415,-1.4344,0.176275,0.28325,-6.9003327,109.5175285,32.70000076293945,17.138735,2.189,87.910965
1776327895570,-7.1460004,-14.443951,45.711002,43.27583,-0.380875,-0.0312125,0.27225,-6.9003327,109.5175285,32.70000076293945,17.138735,2.189,87.910965
1776327895574,-0.066,-13.834051,30.955051,35.779774,1.4826624,-0.49101248,0.1434125,-6.9003327,109.5175285,32.70000076293945,17.138735,2.189,87.910965
1776327895579,2.97405,3.2370002,7.8820505,14.375921,1.837,-0.332475,0.031625,-6.9003327,109.5175285,32.70000076293945,17.138735,2.189,87.910965
1776327895591,-17.646,9.486,-1.8460501,18.97037,1.5038375,0.680625,-0.0545875,-6.9003327,109.5175285,32.70000076293945,17.138735,2.189,87.910965
1776327895594,-13.312951,7.0210505,9.252001,17.92782,0.062975,-0.6389625,0.40094998,-6.9003327,109.5175285,32.70000076293945,17.138735,2.189,87.910965
1776327895599,-1.74495,-1.983,32.81895,29.925625,-0.021175,-0.0653125,0.8053375,-6.9003327,109.5175285,32.70000076293945,17.138735,2.189,87.910965
1776327895604,-0.279,-1.044,21.91905,23.541664,1.3080375,-0.4175875,0.819225,-6.9003327,109.5175285,32.70000076293945,17.138735,2.189,87.910965
1776327895605,18.85095,-4.54605,-36.910954,38.06405,2.8469374,-0.544225,0.963875,-6.9003327,109.5175285,32.70000076293945,17.138735,2.189,87.910965
1776327895610,26.518051,28.689001,-61.293003,65.76075,2.336125,-1.10825,0.3232625,-6.9003327,109.5175285,32.70000076293945,17.138735,2.189,87.910965
1776327895618,-1.8360001,33.711002,-77.313,80.642494,2.2903376,1.286175,-0.15565,-6.9003327,109.5175285,32.70000076293945,17.138735,2.189,87.910965
1776327895621,-10.971001,27.906002,-63.051003,71.9828,-0.4637875,0.5168625,0.262625,-6.9003327,109.5175285,32.70000076293945,17.138735,2.189,87.910965
1776327895630,7.02405,33.091053,-31.870052,51.57768,-1.654675,0.18053749,1.030975,-6.9003327,109.5175285,32.70000076293945,17.138735,2.189,87.910965
1776327895630,22.329,19.906052,-19.806002,39.01662,-1.654675,0.18053749,1.030975,-6.9003327,109.5175285,32.70000076293945,17.138735,2.189,87.910965
1776327895641,37.597054,4.2979503,-23.830051,43.57936,-1.2896125,-0.49307498,0.656425,-6.9003327,109.5175285,32.70000076293945,17.138735,2.189,87.910965
1776327895641,44.96205,6.0370502,-25.296001,50.269077,-0.642675,1.695925,-1.0643874,-6.9003327,109.5175285,32.70000076293945,17.138735,2.189,87.910965
1776327895646,16.341002,12.217951,-19.830002,32.81569,-0.642675,1.695925,-1.0643874,-6.9003327,109.5175285,32.70000076293945,17.138735,2.189,87.910965
1776327895654,-31.306952,10.08405,-16.93905,36.16038,-1.096975,1.6449125,-1.9498875,-6.9003327,109.5175285,32.70000076293945,17.138735,2.189,87.910965
1776327895657,-44.695053,6.36495,3.28305,43.44424,-2.2858,-0.011,-1.5890875,-6.9003327,109.5175285,32.70000076293945,17.138735,2.189,87.910965
1776327895660,-36.52605,1.5289501,22.984951,43.235497,-2.1495376,-0.6942375,-0.522775,-6.9003327,109.5175285,32.70000076293945,17.138735,2.189,87.910965
1776327895673,-19.063051,2.6119502,22.776001,32.49956,-0.8118,-0.429275,0.786225,-6.9003327,109.5175285,32.70000076293945,17.138735,2.189,87.910965
1776327895673,21.736952,-0.13695,-5.0740504,24.3573,-1.3151875,-0.5251125,0.46475,-6.9003327,109.5175285,32.70000076293945,17.138735,2.189,87.910965
1776327895676,32.140953,0.684,0.29700002,30.591145,-1.3151875,-0.5251125,0.46475,-6.9003327,109.5175285,32.70000076293945,17.138735,2.189,87.910965
1776327895684,-3.5029502,-5.66895,23.455952,25.62559,-1.3365,1.3564374,-0.670725,-6.9003327,109.5175285,32.70000076293945,17.138735,2.189,87.910965
1776327895688,-37.06005,5.5870504,53.155052,57.15663,-1.3365,1.3564374,-0.670725,-6.9003327,109.5175285,32.70000076293945,17.138735,2.189,87.910965
1776327895691,-34.933052,10.647,27.76995,48.13422,0.158675,-0.4420625,-0.3078625,-6.9003327,109.5175285,32.70000076293945,17.138735,2.189,87.910965
1776327895697,-7.08795,16.17,-2.6749501,23.91224,0.25025,-0.674025,0.92455,-6.9003327,109.5175285,32.70000076293945,17.138735,2.189,87.910965
1776327895706,17.43795,13.77795,-9.333,24.065916,-0.2116125,-0.3537875,1.28425,-6.9003327,109.5175285,32.70000076293945,17.138735,2.189,87.910965
1776327895707,23.779951,13.425,11.508,28.520071,-0.2116125,-0.3537875,1.28425,-6.9003327,109.5175285,32.70000076293945,17.138735,2.189,87.910965
1776327895711,6.3949504,17.31705,28.893002,33.133415,-0.40315,0.390225,0.00825,-6.9003327,109.5175285,32.70000076293945,17.138735,2.189,87.910965
1776327895721,-10.729051,15.49005,26.38305,32.563465,-0.40315,0.390225,0.00825,-6.9003327,109.5175285,32.70000076293945,17.138735,2.189,87.910965
1776327895723,-1.1220001,13.375051,13.836,21.93394,-0.0488125,0.224125,0.393525,-6.9003327,109.5175285,32.70000076293945,17.138735,2.189,87.910965
1776327895727,-6.5329504,17.99505,10.60995,21.896965,-0.1467125,0.14533749,0.2094125,-6.9003327,109.5175285,32.70000076293945,17.138735,2.189,87.910965
1776327895735,-5.5530005,11.27505,12.336,18.468016,-0.460625,0.192225,0.6978125,-6.9003327,109.5175285,32.70000076293945,17.138735,2.189,87.910965
1776327895741,15.0379505,3.4789503,27.135002,28.667849,-0.847,-0.054725,0.7478625,-6.9003327,109.5175285,32.70000076293945,17.138735,2.189,87.910965
1776327895742,-1.3260001,5.5870504,37.543953,36.118004,-0.4244625,0.287925,-0.0023375,-6.9003327,109.5175285,32.70000076293945,17.138735,2.189,87.910965
1776327895746,-9.16695,5.65605,27.74595,31.034344,0.584375,0.3911875,0.2806375,-6.9003327,109.5175285,32.70000076293945,17.138735,2.189,87.910965
1776327895757,-0.31500003,13.858951,9.534,19.666542,0.9537,-0.09295,0.197725,-6.9003327,109.5175285,32.70000076293945,17.138735,2.189,87.910965
1776327895760,-9.687,26.629051,-8.724,27.652363,1.1037124,-0.0567875,0.1860375,-6.9003327,109.5175285,32.70000076293945,17.138735,2.189,87.910965
1776327895772,4.96005,16.87005,-18.76395,26.102867,0.4109875,-0.1973125,0.900075,-6.9003327,109.5175285,32.70000076293945,17.138735,2.189,87.910965
1776327895773,26.941051,8.23305,-1.7020501,27.798445,-0.86185,-0.6996,0.59894997,-6.9003327,109.5175285,32.70000076293945,17.138735,2.189,87.910965
1776327895776,14.250001,9.77505,10.5709505,21.765547,-0.087037496,0.3166625,0.0603625,-6.9003327,109.5175285,32.70000076293945,17.138735,2.189,87.910965
1776327895781,8.233951,9.5140505,-3.7480502,14.856076,0.7525375,0.5380375,0.1530375,-6.9003327,109.5175285,32.70000076293945,17.138735,2.189,87.910965
1776327895789,11.982,18.001951,-13.372951,23.311905,0.258775,-0.1472625,-0.2971375,-6.9003327,109.5175285,32.70000076293945,17.138735,2.189,87.910965
1776327895791,-9.89295,19.212002,-17.71095,27.014462,0.2704625,0.845625,-0.425975,-6.9003327,109.5175285,32.70000076293945,17.138735,2.189,87.910965
1776327895796,-8.67105,12.657001,-13.33695,21.665953,-0.313775,0.1188,0.1934625,-6.9003327,109.5175285,32.70000076293945,17.138735,2.189,87.910965
1776327895811,6.66795,6.3840003,-4.63605,12.597233,-0.968275,-0.2206875,0.196625,-6.9003327,109.5175285,32.70000076293945,17.138735,2.189,87.910965
1776327895812,-0.48795003,4.34595,15.670051,15.534536,0.2332,0.2061125,-0.6303,-6.9003327,109.5175285,32.70000076293945,17.138735,2.189,87.910965
1776327895812,0.87600005,-1.6690501,17.385,17.09642,0.2332,0.2061125,-0.6303,-6.9003327,109.5175285,32.70000076293945,17.138735,2.189,87.910965
1776327895812,11.323951,-1.3480501,-12.115951,16.73022,0.2332,0.2061125,-0.6303,-6.9003327,109.5175285,32.70000076293945,17.138735,2.189,87.910965
1776327895820,-4.0800004,19.866001,-12.880051,22.566036,-0.0807125,0.8009375,-0.0864875,-6.9003327,109.5175285,32.70000076293945,17.138735,2.189,87.910965
1776327895828,-24.133951,19.003052,-4.36095,29.333603,-1.672825,-0.445225,0.5509625,-6.9003327,109.5175285,32.70000076293945,17.138735,2.189,87.910965
1776327895828,-3.42405,-2.2369502,14.83005,18.173687,-1.0087,-0.3856875,0.2413125,-6.9003327,109.5175285,32.70000076293945,17.138735,2.189,87.910965
1776327895832,7.7790003,-10.390051,33.649952,32.487858,-1.0087,-0.3856875,0.2413125,-6.9003327,109.5175285,32.70000076293945,17.138735,2.189,87.910965
1776327895837,0.64905006,-4.52895,31.489052,31.95333,0.70042497,0.5402375,0.3562625,-6.9003327,109.5175285,32.70000076293945,17.138735,2.189,87.910965
1776327895842,4.881,11.953051,9.55605,19.241009,1.1878625,-0.58575,-0.049225,-6.9003327,109.5175285,32.70000076293945,17.138735,2.189,87.910965
1776327895847,10.000951,16.230001,-22.632002,27.521166,1.29635,-0.1557875,0.0242,-6.9003327,109.5175285,32.70000076293945,17.138735,2.189,87.910965
1776327895858,6.6199503,12.73995,-24.63195,28.312836,0.3971,0.4923875,0.0199375,-6.9003327,109.5175285,32.70000076293945,17.138735,2.189,87.910965
1776327895859,-13.320001,6.0490503,5.4700503,18.157299,-1.0736,0.4444,-0.45787498,-6.9003327,109.5175285,32.70000076293945,17.138735,2.189,87.910965
1776327895861,-20.187,-1.1590501,42.17805,41.050995,-1.0736,0.4444,-0.45787498,-6.9003327,109.5175285,32.70000076293945,17.138735,2.189,87.910965
1776327895872,-7.1410503,-2.2030501,30.912,33.65221,0.81427497,-0.1654125,0.5509625,-6.9003327,109.5175285,32.70000076293945,17.138735,2.189,87.910965
1776327895872,10.44705,6.2569504,-16.438951,23.096834,1.9221125,-0.5399625,0.5520625,-6.9003327,109.5175285,32.70000076293945,17.138735,2.189,87.910965
1776327895876,19.491001,20.007002,-23.011051,33.571056,0.6908,-0.398475,0.2806375,-6.9003327,109.5175285,32.70000076293945,17.138735,2.189,87.910965
1776327895885,4.6150503,15.979051,-10.564051,22.477013,0.0683375,0.422125,-0.1035375,-6.9003327,109.5175285,32.70000076293945,17.138735,2.189,87.910965
1776327895889,-1.25205,3.5650501,2.09295,7.950963,0.0342375,-0.2079,-0.2492875,-6.9003327,109.5175285,32.70000076293945,17.138735,2.189,87.910965
1776327895892,0.56805,7.215,5.77395,8.996888,0.0342375,-0.2079,-0.2492875,-6.9003327,109.5175285,32.70000076293945,17.138735,2.189,87.910965
1776327895897,-6.6070504,16.14405,-4.93305,16.301647,0.7132125,0.1188,0.00935,-6.9003327,109.5175285,32.70000076293945,17.138735,2.189,87.910965
1776327895907,3.5010002,18.87195,-16.675951,23.601341,0.6802125,-0.061049998,0.3870625,-6.9003327,109.5175285,32.70000076293945,17.138735,2.189,87.910965
1776327895909,15.682051,18.012001,-15.0379505,27.298117,-0.344575,-0.48675,0.1593625,-6.9003327,109.5175285,32.70000076293945,17.138735,2.189,87.910965
1776327895912,10.31805,10.69005,-1.55595,17.410465,-0.7022125,0.113437496,-0.02255,-6.9003327,109.5175285,32.70000076293945,17.138735,2.189,87.910965
1776327895917,7.2379503,0.31305,10.32495,13.57258,-0.462825,0.2283875,-0.100237496,-6.9003327,109.5175285,32.70000076293945,17.138735,2.189,87.910965
1776327895924,3.3720002,7.6770005,9.89595,13.091,-0.0158125,-0.0759,-0.5504125,-6.9003327,109.5175285,32.70000076293945,17.138735,2.189,87.910965
1776327895934,-10.65495,15.6,-10.045951,19.735378,0.7706875,0.03795,-0.5621,-6.9003327,109.5175285,32.70000076293945,17.138735,2.189,87.910965
1776327895934,-2.83995,16.13895,-9.196051,18.979805,1.375E-4,0.0900625,0.043449998,-6.9003327,109.5175285,32.70000076293945,17.138735,2.189,87.910965
1776327895939,-4.87095,8.832001,-0.117000006,11.865423,-0.66605,-0.19195,-0.242825,-6.9003327,109.5175285,32.70000076293945,17.138735,2.189,87.910965
1776327895948,0.093,1.9200001,15.2029505,14.632279,-0.853325,-0.25795,0.163625,-6.9003327,109.5175285,32.70000076293945,17.138735,2.189,87.910965
1776327895951,7.4680505,-1.9159501,18.28305,18.800209,-0.0710875,-0.1376375,0.0231,-6.9003327,109.5175285,32.70000076293945,17.138735,2.189,87.910965
1776327895967,2.4379501,-0.47205,9.982051,11.989076,0.5152125,0.4475625,-0.57805,-6.9003327,109.5175285,32.70000076293945,17.138735,2.189,87.910965
1776327895967,7.1059504,2.4109502,-3.66405,9.078293,0.5152125,0.4475625,-0.57805,-6.9003327,109.5175285,32.70000076293945,17.138735,2.189,87.910965
1776327895978,-3.9919503,10.542001,-6.3130503,12.151587,0.5152125,0.4475625,-0.57805,-6.9003327,109.5175285,32.70000076293945,17.138735,2.189,87.910965
1776327895978,-24.730051,16.656,8.55,27.24451,0.5152125,0.4475625,-0.57805,-6.9003327,109.5175285,32.70000076293945,17.138735,2.189,87.910965
1776327895978,-15.253051,6.16905,24.442951,29.02069,0.5152125,0.4475625,-0.57805,-6.9003327,109.5175285,32.70000076293945,17.138735,2.189,87.910965
1776327895987,4.716,0.73695004,24.537,25.80171,0.02035,-0.5038,0.604175,-6.9003327,109.5175285,32.70000076293945,17.138735,2.189,87.910965
1776327895994,12.861001,5.80905,-0.65805006,16.462263,1.0877625,-0.5462875,0.3562625,-6.9003327,109.5175285,32.70000076293945,17.138735,2.189,87.910965
1776327895998,21.102001,10.276051,-25.84905,31.22454,1.1548625,-0.379225,0.2316875,-6.9003327,109.5175285,32.70000076293945,17.138735,2.189,87.910965
1776327896003,17.934,21.69495,-25.377,36.563656,0.44825,-0.0493625,-0.28435,-6.9003327,109.5175285,32.70000076293945,17.138735,2.189,87.910965
1776327896008,0.96000004,16.82895,-36.756,39.662212,0.42473748,0.372075,-0.4844125,-6.9003327,109.5175285,32.70000076293945,17.138735,2.189,87.910965
1776327896013,6.6439505,4.914,-30.451952,33.175083,-1.0544875,-0.11,-0.326975,-6.9003327,109.5175285,32.70000076293945,17.138735,2.189,87.910965
1776327896036,-11.755951,8.109,24.604052,29.393826,-1.8695875,0.7838875,-0.9909625,-6.9003327,109.5175285,32.70000076293945,17.138735,2.189,87.910965
1776327896037,-41.215054,22.40895,70.14001,73.38504,2.60425,0.062425,-0.1109625,-6.9003327,109.5175285,32.70000076293945,17.138735,2.189,87.910965
1776327896037,-16.76205,11.22,51.279003,58.759773,2.60425,0.062425,-0.1109625,-6.9003327,109.5175285,32.70000076293945,17.138735,2.189,87.910965
1776327896037,24.43395,-2.8549502,31.354952,43.634758,2.60425,0.062425,-0.1109625,-6.9003327,109.5175285,32.70000076293945,17.138735,2.189,87.910965
1776327896037,24.004951,-6.6919503,-18.33105,33.4759,2.60425,0.062425,-0.1109625,-6.9003327,109.5175285,32.70000076293945,17.138735,2.189,87.910965
1776327896037,8.60505,20.994001,-52.912952,52.75306,2.60425,0.062425,-0.1109625,-6.9003327,109.5175285,32.70000076293945,17.138735,2.189,87.910965
1776327896042,-8.559,43.85205,-52.644,65.78915,1.616725,-0.80808747,-0.96442497,-6.9003327,109.5175285,32.70000076293945,17.138735,2.189,87.910965
1776327896047,-20.350052,21.969002,-19.332,41.67295,-0.462825,0.896775,-0.3546125,-6.9003327,109.5175285,32.70000076293945,17.138735,2.189,87.910965
1776327896058,-1.005,-6.11205,42.657,42.818092,-3.5712874,-0.5303375,0.63827497,-6.9003327,109.5175285,32.70000076293945,17.138735,2.189,87.910965
1776327896059,21.67695,-22.42695,50.889004,56.313293,2.21375,0.19965,-0.61435,-6.9003327,109.5175285,32.70000076293945,17.138735,2.189,87.910965
1776327896059,11.12205,-8.517,14.0779505,27.150827,2.21375,0.19965,-0.61435,-6.9003327,109.5175285,32.70000076293945,17.138735,2.189,87.910965
1776327896064,-8.02005,25.222952,-9.27495,27.86647,2.21375,0.19965,-0.61435,-6.9003327,109.5175285,32.70000076293945,17.138735,2.189,87.910965
1776327896066,-24.294,30.343952,-15.189001,38.959854,2.21375,0.19965,-0.61435,-6.9003327,109.5175285,32.70000076293945,17.138735,2.189,87.910965
1776327896074,-12.063001,20.235,2.38695,26.734728,0.0438625,-0.0174625,0.0114124995,-6.9003327,109.5175285,32.70000076293945,17.138735,2.189,87.910965
1776327896079,5.0220003,7.0020003,12.636001,17.582422,-0.884125,-0.1749,0.7244875,-6.9003327,109.5175285,32.70000076293945,17.138735,2.189,87.910965
1776327896090,22.76205,-2.4859502,13.066951,24.607317,-0.576675,-1.2167375,0.541475,-6.9003327,109.5175285,32.70000076293945,17.138735,2.189,87.910965
1776327896093,23.622002,-0.22005,5.118,24.25833,0.11825,0.0655875,0.557425,-6.9003327,109.5175285,32.70000076293945,17.138735,2.189,87.910965
1776327896097,4.9410005,16.69005,-20.733002,26.50831,1.370875,0.1709125,-0.2993375,-6.9003327,109.5175285,32.70000076293945,17.138735,2.189,87.910965
1776327896104,-12.83205,29.733002,-40.614002,46.8571,1.3475,0.4796,-0.81014997,-6.9003327,109.5175285,32.70000076293945,17.138735,2.189,87.910965
1776327896111,-16.482,27.574951,-22.78095,40.87767,0.1683,0.115637496,-0.439725,-6.9003327,109.5175285,32.70000076293945,17.138735,2.189,87.910965
1776327896118,-11.14605,8.84895,6.67005,20.749233,-1.2885125,0.3454,0.14135,-6.9003327,109.5175285,32.70000076293945,17.138735,2.189,87.910965
1776327896127,11.545951,-7.8169503,24.097952,26.4227,0.292875,0.0655875,-0.083325,-6.9003327,109.5175285,32.70000076293945,17.138735,2.189,87.910965
1776327896127,21.84,-8.196,26.556002,33.561813,0.292875,0.0655875,-0.083325,-6.9003327,109.5175285,32.70000076293945,17.138735,2.189,87.910965
1776327896127,6.2460003,1.7860501,12.56595,18.029058,0.292875,0.0655875,-0.083325,-6.9003327,109.5175285,32.70000076293945,17.138735,2.189,87.910965
1776327896139,-0.01305,17.298,-6.9210005,18.510763,0.9983875,0.115637496,-0.5324,-6.9003327,109.5175285,32.70000076293945,17.138735,2.189,87.910965
1776327896139,-14.24505,20.26605,-18.46305,28.418379,0.0193875,0.3496625,-0.407825,-6.9003327,109.5175285,32.70000076293945,17.138735,2.189,87.910965
1776327896141,-22.491001,19.67205,-1.6350001,29.623707,0.0193875,0.3496625,-0.407825,-6.9003327,109.5175285,32.70000076293945,17.138735,2.189,87.910965
1776327896144,-10.884001,9.852,20.608952,26.167309,0.0193875,0.3496625,-0.407825,-6.9003327,109.5175285,32.70000076293945,17.138735,2.189,87.910965
1776327896150,7.86495,1.4650501,22.09395,24.0317,-0.3755125,-0.6037625,0.7319125,-6.9003327,109.5175285,32.70000076293945,17.138735,2.189,87.910965
1776327896159,21.445051,0.01305,-0.27,21.963745,0.85469997,-0.3089625,0.604175,-6.9003327,109.5175285,32.70000076293945,17.138735,2.189,87.910965
1776327896160,21.466051,12.40005,-21.556952,30.67436,0.85469997,-0.3089625,0.604175,-6.9003327,109.5175285,32.70000076293945,17.138735,2.189,87.910965
1776327896164,6.2839503,15.327001,-39.493053,40.396046,0.6281,0.406175,-0.491975,-6.9003327,109.5175285,32.70000076293945,17.138735,2.189,87.910965
1776327896170,-5.4409504,16.327951,-24.390001,31.959953,-0.5691125,0.60513747,-0.35255,-6.9003327,109.5175285,32.70000076293945,17.138735,2.189,87.910965
1776327896175,-15.82995,9.711,-1.6210501,21.305473,-1.345025,0.2602875,-0.263175,-6.9003327,109.5175285,32.70000076293945,17.138735,2.189,87.910965
1776327896180,-2.8849502,1.2610501,15.430951,16.860205,-1.4014,-0.35585,0.3201,-6.9003327,109.5175285,32.70000076293945,17.138735,2.189,87.910965
1776327896193,12.81795,-6.2650504,10.974001,17.771584,-0.329725,0.1241625,0.4148375,-6.9003327,109.5175285,32.70000076293945,17.138735,2.189,87.910965
1776327896193,5.9440503,4.7719502,21.936,22.132437,-0.428725,0.582725,-0.473825,-6.9003327,109.5175285,32.70000076293945,17.138735,2.189,87.910965
1776327896195,-14.512951,8.85105,38.349003,37.98468,-0.428725,0.582725,-0.473825,-6.9003327,109.5175285,32.70000076293945,17.138735,2.189,87.910965
1776327896201,-16.150951,6.12795,45.258003,46.351067,-0.0924,0.0528,-0.0418,-6.9003327,109.5175285,32.70000076293945,17.138735,2.189,87.910965
1776327896206,-12.802951,-0.01695,14.619,24.816399,0.980375,-0.2866875,0.083875,-6.9003327,109.5175285,32.70000076293945,17.138735,2.189,87.910965
1776327896210,5.12505,12.135,-4.87995,16.20145,1.0910625,-0.6197125,0.4041125,-6.9003327,109.5175285,32.70000076293945,17.138735,2.189,87.910965
1776327896216,5.54895,18.955952,-18.553951,24.91967,0.9153375,-0.29947498,0.17105,-6.9003327,109.5175285,32.70000076293945,17.138735,2.189,87.910965
1776327896226,13.812,14.917951,-13.876051,24.675337,-0.2179375,-0.3441625,0.4296875,-6.9003327,109.5175285,32.70000076293945,17.138735,2.189,87.910965
1776327896230,19.58205,4.0800004,-4.64295,21.362558,-0.4255625,0.0889625,0.2231625,-6.9003327,109.5175285,32.70000076293945,17.138735,2.189,87.910965
1776327896231,5.5519505,8.899051,3.0370502,13.008312,0.05335,0.6785625,-0.2960375,-6.9003327,109.5175285,32.70000076293945,17.138735,2.189,87.910965
1776327896236,-6.02295,24.121952,-10.288051,24.127289,0.865425,0.190025,-0.4109875,-6.9003327,109.5175285,32.70000076293945,17.138735,2.189,87.910965
1776327896240,-2.9190001,22.73295,-31.735952,36.142963,0.4301,-0.069575,-0.0182875,-6.9003327,109.5175285,32.70000076293945,17.138735,2.189,87.910965
1776327896245,3.65895,18.855001,-14.458051,26.460804,-0.8980125,-0.2844875,0.066825,-6.9003327,109.5175285,32.70000076293945,17.138735,2.189,87.910965
1776327896251,0.29895002,7.3489504,3.2640002,11.729559,-0.97679996,0.3092375,0.1285625,-6.9003327,109.5175285,32.70000076293945,17.138735,2.189,87.910965
1776327896259,8.530951,5.2369504,18.82695,19.404058,0.1395625,0.0836,-0.0853875,-6.9003327,109.5175285,32.70000076293945,17.138735,2.189,87.910965
1776327896261,9.89595,4.27605,7.8820505,14.564366,0.1395625,0.0836,-0.0853875,-6.9003327,109.5175285,32.70000076293945,17.138735,2.189,87.910965
1776327896274,2.59605,10.666051,-5.3160005,12.670381,0.4514125,0.2220625,-0.443025,-6.9003327,109.5175285,32.70000076293945,17.138735,2.189,87.910965
1776327896274,-13.596001,12.870001,-6.60195,18.415113,-0.199925,0.271975,-0.64735,-6.9003327,109.5175285,32.70000076293945,17.138735,2.189,87.910965
1776327896277,-23.305052,11.60505,9.762,25.926754,-0.5935875,0.225225,-0.3898125,-6.9003327,109.5175285,32.70000076293945,17.138735,2.189,87.910965
1776327896288,-23.482052,6.5800505,21.303001,31.09006,-0.706475,-0.3100625,0.1604625,-6.9003327,109.5175285,32.70000076293945,17.138735,2.189,87.910965
1776327896292,2.18895,-0.78300005,13.075951,16.842815,-0.706475,-0.3100625,0.1604625,-6.9003327,109.5175285,32.70000076293945,17.138735,2.189,87.910965
1776327896297,26.66805,-1.91805,6.2749505,25.33929,0.1736625,-0.411125,0.7447,-6.9003327,109.5175285,32.70000076293945,17.138735,2.189,87.910965
1776327896306,18.667051,-0.076950006,-3.7360501,20.297783,0.31515,-0.020624999,-0.1280125,-6.9003327,109.5175285,32.70000076293945,17.138735,2.189,87.910965
1776327896306,5.4960003,10.312051,4.236,14.003017,0.061875,0.3359125,-0.6175125,-6.9003327,109.5175285,32.70000076293945,17.138735,2.189,87.910965
1776327896315,-24.876001,16.776001,17.167051,30.455128,0.0576125,0.813725,-0.8559375,-6.9003327,109.5175285,32.70000076293945,17.138735,2.189,87.910965
1776327896321,-31.438951,17.97405,19.344002,38.936504,0.012925,-0.3515875,-0.2226125,-6.9003327,109.5175285,32.70000076293945,17.138735,2.189,87.910965
1776327896322,-0.89205,10.446,-1.6330501,16.275658,0.012925,-0.3515875,-0.2226125,-6.9003327,109.5175285,32.70000076293945,17.138735,2.189,87.910965
1776327896326,23.88495,3.22305,-25.87305,31.542727,0.7792125,-0.7453875,0.95755,-6.9003327,109.5175285,32.70000076293945,17.138735,2.189,87.910965
1776327896331,29.41995,7.6369505,-26.649002,38.64701,-0.0699875,-0.610225,0.328625,-6.9003327,109.5175285,32.70000076293945,17.138735,2.189,87.910965
1776327896331,17.472,6.98295,-17.181002,28.113228,-0.2701875,0.62315,-0.3025,-6.9003327,109.5175285,32.70000076293945,17.138735,2.189,87.910965
1776327896342,-10.05105,8.23305,7.872,17.775673,-0.8223875,0.9552125,-0.751575,-6.9003327,109.5175285,32.70000076293945,17.138735,2.189,87.910965
1776327896343,-24.57405,5.93895,21.820951,30.27213,0.044825,-0.365475,0.15619999,-6.9003327,109.5175285,32.70000076293945,17.138735,2.189,87.910965
1776327896346,-10.2310505,7.3230004,12.993001,20.523567,0.044825,-0.365475,0.15619999,-6.9003327,109.5175285,32.70000076293945,17.138735,2.189,87.910965
1776327896353,-5.3569503,8.001,0.36105,11.813131,0.3876125,-0.1535875,0.2754125,-6.9003327,109.5175285,32.70000076293945,17.138735,2.189,87.910965
1776327896361,3.52095,12.1369505,13.395,17.094984,-0.3872,-0.4005375,0.46805,-6.9003327,109.5175285,32.70000076293945,17.138735,2.189,87.910965
1776327896361,7.5490503,5.8450503,15.582001,18.038471,-0.3872,-0.4005375,0.46805,-6.9003327,109.5175285,32.70000076293945,17.138735,2.189,87.910965
1776327896365,7.28595,9.438001,14.953951,18.908028,0.193875,-0.134475,0.1285625,-6.9003327,109.5175285,32.70000076293945,17.138735,2.189,87.910965
1776327896373,2.0070002,11.365951,-1.44105,13.086727,0.9356875,0.036849998,-0.0928125,-6.9003327,109.5175285,32.70000076293945,17.138735,2.189,87.910965
1776327896377,-0.933,19.55895,-4.46595,18.684559,0.0331375,0.10395,-0.0193875,-6.9003327,109.5175285,32.70000076293945,17.138735,2.189,87.910965
1776327896383,-10.38195,16.546051,-1.2420001,19.395248,0.0331375,0.10395,-0.0193875,-6.9003327,109.5175285,32.70000076293945,17.138735,2.189,87.910965
1776327896387,-3.96795,5.6179504,15.840001,17.694094,-0.6298875,-0.2451625,0.3711125,-6.9003327,109.5175285,32.70000076293945,17.138735,2.189,87.910965
1776327896391,6.4420505,-2.4550502,19.926,20.406734,-0.17545,-0.22385,0.3988875,-6.9003327,109.5175285,32.70000076293945,17.138735,2.189,87.910965
1776327896397,5.0800505,-2.2150502,7.4740505,11.524994,0.67815,-0.1142625,-0.132275,-6.9003327,109.5175285,32.70000076293945,17.138735,2.189,87.910965
1776327896407,0.44805002,12.292951,4.2649503,12.7205925,0.67815,-0.1142625,-0.132275,-6.9003327,109.5175285,32.70000076293945,17.138735,2.189,87.910965
1776327896409,-9.679951,17.13495,-10.111051,20.244583,1.0984875,0.128425,-0.146025,-6.9003327,109.5175285,32.70000076293945,17.138735,2.189,87.910965
1776327896411,-3.2610002,18.960001,-10.123051,21.440262,0.1896125,-0.35901248,0.247775,-6.9003327,109.5175285,32.70000076293945,17.138735,2.189,87.910965
1776327896417,4.80705,10.83195,-12.219001,17.905521,0.029975,-0.4420625,0.3509,-6.9003327,109.5175285,32.70000076293945,17.138735,2.189,87.910965
1776327896426,16.98105,6.5160003,-8.65995,19.696867,-0.0881375,-0.5038,0.4530625,-6.9003327,109.5175285,32.70000076293945,17.138735,2.189,87.910965
1776327896427,20.322,10.654051,-18.027,27.283274,0.5726875,-0.0185625,-0.0715,-6.9003327,109.5175285,32.70000076293945,17.138735,2.189,87.910965
1776327896429,15.1050005,18.883951,-26.670002,34.25725,0.5726875,-0.0185625,-0.0715,-6.9003327,109.5175285,32.70000076293945,17.138735,2.189,87.910965
1776327896440,-1.35195,18.105001,-19.045052,27.901224,0.0746625,0.3422375,-0.41525,-6.9003327,109.5175285,32.70000076293945,17.138735,2.189,87.910965
1776327896441,-16.876951,16.83105,-1.6690501,24.69508,-0.8894875,0.418825,-0.31735,-6.9003327,109.5175285,32.70000076293945,17.138735,2.189,87.910965
1776327896444,-23.865002,14.685,11.244,29.093388,-0.8894875,0.418825,-0.31735,-6.9003327,109.5175285,32.70000076293945,17.138735,2.189,87.910965
1776327896450,-6.9660006,10.68105,10.155001,18.859758,-0.53185,-0.4728625,0.1104125,-6.9003327,109.5175285,32.70000076293945,17.138735,2.189,87.910965
1776327896455,18.111,2.5069501,0.42405003,18.402832,-0.3254625,-0.4602125,0.86075,-6.9003327,109.5175285,32.70000076293945,17.138735,2.189,87.910965
1776327896460,18.451052,-1.7320501,-1.3600501,18.546173,-0.2605625,-0.4728625,0.5020125,-6.9003327,109.5175285,32.70000076293945,17.138735,2.189,87.910965
1776327896465,-0.40395,4.33605,14.58495,15.886204,-0.4170375,0.356125,-0.242825,-6.9003327,109.5175285,32.70000076293945,17.138735,2.189,87.910965
1776327896476,-26.152952,17.787,27.700052,36.81196,-0.4170375,0.356125,-0.242825,-6.9003327,109.5175285,32.70000076293945,17.138735,2.189,87.910965
1776327896477,-28.399052,19.38195,18.139952,38.461964,-0.0210375,-0.68145,0.59894997,-6.9003327,109.5175285,32.70000076293945,17.138735,2.189,87.910965
1776327896490,4.02105,8.20005,5.65395,16.285482,-0.0210375,-0.68145,0.59894997,-6.9003327,109.5175285,32.70000076293945,17.138735,2.189,87.910965
1776327896492,24.184952,-0.9580501,2.8590002,22.754848,-0.089237496,-0.61448747,1.1980375,-6.9003327,109.5175285,32.70000076293945,17.138735,2.189,87.910965
1776327896496,18.49695,6.2430005,6.8640003,21.105883,0.045925,-0.25685,0.49885,-6.9003327,109.5175285,32.70000076293945,17.138735,2.189,87.910965
1776327896500,3.3619502,14.42895,6.4950004,17.162457,0.275825,0.1529,-0.1769625,-6.9003327,109.5175285,32.70000076293945,17.138735,2.189,87.910965
1776327896507,-13.167001,16.88595,5.307,21.080961,0.41635,0.49335,-0.341825,-6.9003327,109.5175285,32.70000076293945,17.138735,2.189,87.910965
1776327896508,-14.326051,25.180052,3.6709502,27.577654,0.6238375,-0.2398,0.34347498,-6.9003327,109.5175285,32.70000076293945,17.138735,2.189,87.910965
1776327896510,-3.486,19.771952,-14.451,25.305042,0.6238375,-0.2398,0.34347498,-6.9003327,109.5175285,32.70000076293945,17.138735,2.189,87.910965
1776327896517,16.650002,16.126951,-17.08995,28.100002,0.3130875,-0.672925,0.66165,-6.9003327,109.5175285,32.70000076293945,17.138735,2.189,87.910965
1776327896522,23.26995,4.53795,-5.07,25.015482,-0.5522,-0.722975,0.540375,-6.9003327,109.5175285,32.70000076293945,17.138735,2.189,87.910965
1776327896526,10.078051,-2.8519502,14.833951,19.530243,-0.755425,0.40713748,0.14135,-6.9003327,109.5175285,32.70000076293945,17.138735,2.189,87.910965
1776327896530,-14.76,5.8669505,36.037052,35.41171,-0.492525,0.4731375,-0.6260375,-6.9003327,109.5175285,32.70000076293945,17.138735,2.189,87.910965
1776327896543,-35.452953,14.60595,36.112053,49.219837,0.0416625,0.7668375,-0.6835125,-6.9003327,109.5175285,32.70000076293945,17.138735,2.189,87.910965
1776327896545,-26.823002,11.598001,13.323001,35.537415,0.7558375,-0.2409,-0.181225,-6.9003327,109.5175285,32.70000076293945,17.138735,2.189,87.910965
1776327896554,6.39195,4.2499504,3.7050002,13.926099,0.701525,-0.74745,0.85745,-6.9003327,109.5175285,32.70000076293945,17.138735,2.189,87.910965
1776327896557,16.866001,-3.6049502,1.55595,16.638824,0.3375625,-0.660275,1.0745625,-6.9003327,109.5175285,32.70000076293945,17.138735,2.189,87.910965
1776327896558,15.987,-2.15595,6.1050005,17.126394,0.3375625,-0.660275,1.0745625,-6.9003327,109.5175285,32.70000076293945,17.138735,2.189,87.910965
1776327896561,2.80005,9.150001,10.083,14.545845,0.44288749,0.1953875,0.1519375,-6.9003327,109.5175285,32.70000076293945,17.138735,2.189,87.910965
1776327896566,-15.255001,20.935951,-11.200951,25.486898,1.1207625,-0.1643125,0.2242625,-6.9003327,109.5175285,32.70000076293945,17.138735,2.189,87.910965
1776327896577,-2.016,27.81495,-20.649,32.857693,1.1207625,-0.1643125,0.2242625,-6.9003327,109.5175285,32.70000076293945,17.138735,2.189,87.910965
1776327896577,4.6530004,18.747002,-31.984951,36.463478,-0.065725,-0.5974375,0.67553747,-6.9003327,109.5175285,32.70000076293945,17.138735,2.189,87.910965
1776327896581,19.24905,17.310001,-20.364,33.6424,-0.065725,-0.5974375,0.67553747,-6.9003327,109.5175285,32.70000076293945,17.138735,2.189,87.910965
1776327896588,26.091002,9.0379505,-29.341051,38.96086,-0.1604625,-0.4643375,0.66165,-6.9003327,109.5175285,32.70000076293945,17.138735,2.189,87.910965
1776327896594,24.184952,13.785001,-24.271051,37.338306,-0.0955625,0.1060125,0.34347498,-6.9003327,109.5175285,32.70000076293945,17.138735,2.189,87.910965
1776327896599,5.1469502,14.652,-25.236002,31.17289,-0.048675,0.6529875,-0.23539999,-6.9003327,109.5175285,32.70000076293945,17.138735,2.189,87.910965
1776327896610,-10.798051,20.55495,-9.13395,26.195068,-0.47341248,0.7030375,-0.6281,-6.9003327,109.5175285,32.70000076293945,17.138735,2.189,87.910965
1776327896611,-20.452951,12.654,5.8360505,25.038107,-1.1193875,0.484825,-0.45045,-6.9003327,109.5175285,32.70000076293945,17.138735,2.189,87.910965
1776327896618,-6.9139504,-0.61605,14.904,18.160542,-1.0118625,-0.3856875,0.4200625,-6.9003327,109.5175285,32.70000076293945,17.138735,2.189,87.910965
1776327896627,3.525,-6.2389503,15.979051,17.641937,-1.0118625,-0.3856875,0.4200625,-6.9003327,109.5175285,32.70000076293945,17.138735,2.189,87.910965
1776327896627,-1.9009501,-1.269,28.467001,26.375275,-0.56485,0.324225,-0.095975,-6.9003327,109.5175285,32.70000076293945,17.138735,2.189,87.910965
1776327896629,-15.586051,-7.8840003,40.365,40.46065,-0.56485,0.324225,-0.095975,-6.9003327,109.5175285,32.70000076293945,17.138735,2.189,87.910965
1776327896634,-15.301051,-8.886001,60.174004,58.26938,-0.720225,0.2283875,0.1370875,-6.9003327,109.5175285,32.70000076293945,17.138735,2.189,87.910965
1776327896644,-18.855001,-0.94605005,42.753002,49.042435,1.8242124,-0.283525,0.49774998,-6.9003327,109.5175285,32.70000076293945,17.138735,2.189,87.910965
1776327896646,-1.8169501,15.33705,3.5659502,22.48899,1.8242124,-0.283525,0.49774998,-6.9003327,109.5175285,32.70000076293945,17.138735,2.189,87.910965
1776327896649,12.94995,16.507952,-28.083002,32.541977,2.222275,-0.7027625,0.7660125,-6.9003327,109.5175285,32.70000076293945,17.138735,2.189,87.910965
1776327896655,13.6710005,16.639952,-21.355951,30.771763,0.61215,-0.23773749,0.56595,-6.9003327,109.5175285,32.70000076293945,17.138735,2.189,87.910965
1776327896657,7.6810503,17.99295,-18.027,27.436722,0.8218375,0.46035,0.36795,-6.9003327,109.5175285,32.70000076293945,17.138735,2.189,87.910965
1776327896663,5.736,26.112001,-31.056002,38.26991,0.8218375,0.46035,0.36795,-6.9003327,109.5175285,32.70000076293945,17.138735,2.189,87.910965
1776327896666,12.183001,26.229002,-31.887001,42.092724,0.58547497,-0.0801625,0.28393748,-6.9003327,109.5175285,32.70000076293945,17.138735,2.189,87.910965
1776327896671,20.872051,14.23305,-34.401,42.56319,-0.37867498,-0.2696375,0.555225,-6.9003327,109.5175285,32.70000076293945,17.138735,2.189,87.910965
1776327896677,24.517952,14.637001,-29.02695,41.08684,-0.38073748,0.076175,0.30195,-6.9003327,109.5175285,32.70000076293945,17.138735,2.189,87.910965
1776327896682,6.90495,10.824,-7.6540504,20.175209,-0.8809625,0.52854997,-0.1992375,-6.9003327,109.5175285,32.70000076293945,17.138735,2.189,87.910965
1776327896697,-21.292952,6.4150505,31.008001,34.561504,-1.8419499,0.91368747,-0.8622625,-6.9003327,109.5175285,32.70000076293945,17.138735,2.189,87.910965
1776327896697,-27.730951,-4.2340503,48.372,51.64642,-0.2509375,0.10065,0.1274625,-6.9003327,109.5175285,32.70000076293945,17.138735,2.189,87.910965
1776327896700,-17.088001,2.7600002,22.29,32.906605,-0.2509375,0.10065,0.1274625,-6.9003327,109.5175285,32.70000076293945,17.138735,2.189,87.910965
1776327896702,1.60905,9.253051,-17.143051,22.219065,1.2304875,-0.707025,0.296725,-6.9003327,109.5175285,32.70000076293945,17.138735,2.189,87.910965
1776327896710,17.566952,7.9860005,-18.25395,25.694029,0.5930375,-0.3026375,0.8713375,-6.9003327,109.5175285,32.70000076293945,17.138735,2.189,87.910965
1776327896717,9.954,2.36805,-2.835,13.632645,-0.572275,-0.2685375,0.23815,-6.9003327,109.5175285,32.70000076293945,17.138735,2.189,87.910965
1776327896730,2.04795,-0.34995002,23.24805,21.399092,-1.1012375,0.1816375,-0.1269125,-6.9003327,109.5175285,32.70000076293945,17.138735,2.189,87.910965
1776327896732,-9.807,-3.492,24.055052,25.248623,0.93995,0.1241625,0.2487375,-6.9003327,109.5175285,32.70000076293945,17.138735,2.189,87.910965
1776327896732,-4.48005,10.276051,7.9920006,16.06361,0.93995,0.1241625,0.2487375,-6.9003327,109.5175285,32.70000076293945,17.138735,2.189,87.910965
1776327896733,-1.9219501,14.580001,-20.677952,23.512053,0.93995,0.1241625,0.2487375,-6.9003327,109.5175285,32.70000076293945,17.138735,2.189,87.910965
1776327896740,4.6320004,21.906,-28.117052,33.456783,0.9079125,-0.134475,0.1934625,-6.9003327,109.5175285,32.70000076293945,17.138735,2.189,87.910965
1776327896744,10.240951,13.81305,-12.95205,23.913353,-0.621225,-0.249425,0.3531,-6.9003327,109.5175285,32.70000076293945,17.138735,2.189,87.910965
1776327896753,10.879951,2.90895,9.39795,16.51725,-1.08735,0.16775,0.278575,-6.9003327,109.5175285,32.70000076293945,17.138735,2.189,87.910965
1776327896765,7.4989505,1.04805,16.78605,18.035276,0.2215125,0.1529,-0.458975,-6.9003327,109.5175285,32.70000076293945,17.138735,2.189,87.910965
1776327896766,-0.528,9.232051,6.1050005,12.471568,0.2215125,0.1529,-0.458975,-6.9003327,109.5175285,32.70000076293945,17.138735,2.189,87.910965
1776327896767,-13.693951,17.013,-1.6140001,20.01361,0.2215125,0.1529,-0.458975,-6.9003327,109.5175285,32.70000076293945,17.138735,2.189,87.910965
1776327896772,-15.385051,20.893051,8.884951,25.943174,0.0342375,0.534875,-0.1194875,-6.9003327,109.5175285,32.70000076293945,17.138735,2.189,87.910965
1776327896774,-9.61305,9.14595,8.78505,17.919353,-0.46805,0.013475,0.1775125,-6.9003327,109.5175285,32.70000076293945,17.138735,2.189,87.910965
1776327896779,11.671051,-1.22895,20.568,22.528276,-0.884125,-0.64845,0.5850625,-6.9003327,109.5175285,32.70000076293945,17.138735,2.189,87.910965
1776327896782,9.79605,-7.1040006,18.063002,21.899015,0.4024625,0.060225,-0.0875875,-6.9003327,109.5175285,32.70000076293945,17.138735,2.189,87.910965
1776327896802,3.4339502,3.2389503,3.5800502,9.119394,0.4024625,0.060225,-0.0875875,-6.9003327,109.5175285,32.70000076293945,17.138735,2.189,87.910965
1776327896803,-1.13205,14.24505,-2.9310002,13.493841,-0.262625,-0.0430375,0.278575,-6.9003327,109.5175285,32.70000076293945,17.138735,2.189,87.910965
1776327896803,-11.78505,18.136051,-7.6990504,21.065332,-0.262625,-0.0430375,0.278575,-6.9003327,109.5175285,32.70000076293945,17.138735,2.189,87.910965
1776327896803,0.99600005,14.194051,6.3559504,16.680271,-0.262625,-0.0430375,0.278575,-6.9003327,109.5175285,32.70000076293945,17.138735,2.189,87.910965
1776327896810,8.691,-2.5459502,10.02495,14.143904,-0.7085375,-0.019524999,0.4818,-6.9003327,109.5175285,32.70000076293945,17.138735,2.189,87.910965
1776327896814,11.910001,-3.5110502,16.494001,19.345007,-0.46585,-0.19195,0.3295875,-6.9003327,109.5175285,32.70000076293945,17.138735,2.189,87.910965
1776327896829,-2.69595,5.6389503,-1.6470001,9.039906,0.54614997,0.5157625,-0.1078,-6.9003327,109.5175285,32.70000076293945,17.138735,2.189,87.910965
1776327896829,-7.9630504,25.73805,-12.216001,25.473492,-0.6191625,-0.2355375,0.3733125,-6.9003327,109.5175285,32.70000076293945,17.138735,2.189,87.910965
1776327896829,-9.474,26.58105,-14.122951,30.339314,-0.6191625,-0.2355375,0.3733125,-6.9003327,109.5175285,32.70000076293945,17.138735,2.189,87.910965
1776327896835,0.75705004,18.340052,-0.061950002,20.752481,-0.6191625,-0.2355375,0.3733125,-6.9003327,109.5175285,32.70000076293945,17.138735,2.189,87.910965
1776327896837,21.351002,2.2690501,4.4380503,21.690578,-0.7563875,-0.32175,0.656425,-6.9003327,109.5175285,32.70000076293945,17.138735,2.189,87.910965
1776327896843,22.767,2.01795,-3.3330002,22.816511,-0.279675,-0.167475,0.49568748,-6.9003327,109.5175285,32.70000076293945,17.138735,2.189,87.910965
1776327896847,4.986,13.440001,-14.449051,20.84618,0.456775,0.3135,-0.359975,-6.9003327,109.5175285,32.70000076293945,17.138735,2.189,87.910965
1776327896854,-8.298,22.95795,-15.198001,27.17398,0.34814999,0.3656125,-0.5696625,-6.9003327,109.5175285,32.70000076293945,17.138735,2.189,87.910965
1776327896859,-13.774951,20.886002,-9.771001,26.922607,0.014025,0.8094625,-0.31735,-6.9003327,109.5175285,32.70000076293945,17.138735,2.189,87.910965
1776327896864,-1.1730001,14.845951,10.435051,19.931955,-1.147025,0.0325875,0.4807,-6.9003327,109.5175285,32.70000076293945,17.138735,2.189,87.910965
1776327896869,11.922001,-3.9640503,20.08905,22.941795,-1.147025,0.0325875,0.4807,-6.9003327,109.5175285,32.70000076293945,17.138735,2.189,87.910965
1776327896885,11.659051,-11.115001,35.557953,35.81752,1.1719126,0.3986125,-0.702625,-6.9003327,109.5175285,32.70000076293945,17.138735,2.189,87.910965
1776327896886,-12.031951,-3.1999502,29.77695,32.983486,1.1719126,0.3986125,-0.702625,-6.9003327,109.5175285,32.70000076293945,17.138735,2.189,87.910965
1776327896886,-23.76,17.740952,5.7570004,30.761757,1.1719126,0.3986125,-0.702625,-6.9003327,109.5175285,32.70000076293945,17.138735,2.189,87.910965
1776327896891,-18.448051,27.052952,-18.469952,36.2278,1.1719126,0.3986125,-0.702625,-6.9003327,109.5175285,32.70000076293945,17.138735,2.189,87.910965
1776327896894,2.3710501,17.94495,-9.328051,23.536036,1.534775,0.1241625,-0.0715,-6.9003327,109.5175285,32.70000076293945,17.138735,2.189,87.910965
1776327896899,24.838951,-5.0220003,15.64605,28.533148,-1.2705,-0.58575,1.0352376,-6.9003327,109.5175285,32.70000076293945,17.138735,2.189,87.910965
1776327896910,24.39105,-15.709051,31.723951,40.09832,-1.066175,-0.0397375,0.655325,-6.9003327,109.5175285,32.70000076293945,17.138735,2.189,87.910965
1776327896910,2.184,1.0170001,22.029001,25.747944,0.144925,0.4785,-0.3078625,-6.9003327,109.5175285,32.70000076293945,17.138735,2.189,87.910965
1776327896914,-19.198051,23.88705,-5.367,30.039248,1.847725,0.6626125,-0.817575,-6.9003327,109.5175285,32.70000076293945,17.138735,2.189,87.910965
1776327896924,-22.407001,30.586052,-30.565052,44.968777,1.764675,0.3348125,-0.4791875,-6.9003327,109.5175285,32.70000076293945,17.138735,2.189,87.910965
1776327896928,-1.82895,20.425951,-19.708052,31.7477,0.3674,-0.3334375,0.24447499,-6.9003327,109.5175285,32.70000076293945,17.138735,2.189,87.910965
1776327896934,17.119051,-0.18405001,-0.054,20.04564,-0.951225,-0.407,0.9543875,-6.9003327,109.5175285,32.70000076293945,17.138735,2.189,87.910965
1776327896943,27.475952,-7.0290003,17.17905,30.535547,-0.95975,-0.3686375,0.6191625,-6.9003327,109.5175285,32.70000076293945,17.138735,2.189,87.910965
1776327896945,15.730051,-5.04195,17.04,25.09287,-0.443575,0.094325,0.0774125,-6.9003327,109.5175285,32.70000076293945,17.138735,2.189,87.910965
1776327896948,-6.4420505,9.222,3.5779502,14.462202,1.00265,0.713625,-0.693,-6.9003327,109.5175285,32.70000076293945,17.138735,2.189,87.910965
1776327896956,-21.661951,25.02,-8.81805,30.291693,1.0143375,0.46461248,-0.7803125,-6.9003327,109.5175285,32.70000076293945,17.138735,2.189,87.910965
1776327896961,-19.377,26.478,-23.461052,38.32695,1.1889625,0.33275,-0.3408625,-6.9003327,109.5175285,32.70000076293945,17.138735,2.189,87.910965
1776327896969,6.13605,16.431002,-16.570951,26.968868,-0.122237496,-0.5900125,0.43175,-6.9003327,109.5175285,32.70000076293945,17.138735,2.189,87.910965
1776327896975,25.995,-0.59205,0.99600005,26.210423,-0.9150625,-0.461175,0.883025,-6.9003327,109.5175285,32.70000076293945,17.138735,2.189,87.910965
1776327896981,20.659052,-5.6260505,16.935001,27.0814,-1.02575,-0.1535875,0.3317875,-6.9003327,109.5175285,32.70000076293945,17.138735,2.189,87.910965
1776327896981,4.35195,8.08005,18.28095,21.78053,1.26775,0.7084,-0.69629997,-6.9003327,109.5175285,32.70000076293945,17.138735,2.189,87.910965
1776327896984,-12.609,23.674051,-11.934001,27.842176,1.26775,0.7084,-0.69629997,-6.9003327,109.5175285,32.70000076293945,17.138735,2.189,87.910965
1776327896991,-8.15205,30.63795,-36.460953,44.222107,1.4411374,-0.036575,-0.4536125,-6.9003327,109.5175285,32.70000076293945,17.138735,2.189,87.910965
1776327896996,1.4110501,15.22395,-23.997002,31.60742,1.4411374,-0.036575,-0.4536125,-6.9003327,109.5175285,32.70000076293945,17.138735,2.189,87.910965
1776327896999,8.43795,-4.3660502,4.78695,14.8322315,-1.3226125,-0.070675,0.2264625,-6.9003327,109.5175285,32.70000076293945,17.138735,2.189,87.910965
1776327897011,7.2450004,-9.489,27.01995,26.59841,-1.3226125,-0.070675,0.2264625,-6.9003327,109.5175285,32.70000076293945,17.138735,2.189,87.910965
1776327897014,-1.26405,-1.3579501,13.840051,16.490755,0.4983,0.160325,-0.342925,-6.9003327,109.5175285,32.70000076293945,17.138735,2.189,87.910965
1776327897026,-7.8240004,13.5379505,4.15695,16.24163,0.4983,0.160325,-0.342925,-6.9003327,109.5175285,32.70000076293945,17.138735,2.189,87.910965
1776327897026,-16.467001,22.045052,7.9420505,26.159948,-0.2893,0.078375,0.0848375,-6.9003327,109.5175285,32.70000076293945,17.138735,2.189,87.910965
1776327897029,-6.42,11.239051,13.311001,20.085201,-0.2893,0.078375,0.0848375,-6.9003327,109.5175285,32.70000076293945,17.138735,2.189,87.910965
1776327897034,15.211051,-1.2570001,14.133,20.658152,-0.591525,-0.575025,0.55,-6.9003327,109.5175285,32.70000076293945,17.138735,2.189,87.910965
1776327897043,14.81805,-2.8290002,1.21395,16.23919,-0.591525,-0.575025,0.55,-6.9003327,109.5175285,32.70000076293945,17.138735,2.189,87.910965
1776327897046,0.28500003,14.400001,-2.457,14.93655,0.7579,0.4167625,-0.5333625,-6.9003327,109.5175285,32.70000076293945,17.138735,2.189,87.910965
1776327897048,-14.065051,27.94605,-7.9870505,28.818771,0.7579,0.4167625,-0.5333625,-6.9003327,109.5175285,32.70000076293945,17.138735,2.189,87.910965
1776327897053,-6.8820004,26.827951,-10.545,29.472628,0.078925,-0.078099996,0.2222,-6.9003327,109.5175285,32.70000076293945,17.138735,2.189,87.910965
1776327897060,12.847051,11.16495,-15.45705,24.287971,-0.5713125,-0.5325375,0.120037496,-6.9003327,109.5175285,32.70000076293945,17.138735,2.189,87.910965
1776327897062,24.324001,2.80395,-14.3550005,27.563862,-0.5713125,-0.5325375,0.120037496,-6.9003327,109.5175285,32.70000076293945,17.138735,2.189,87.910965
1776327897069,12.928051,7.9840503,-3.015,17.90554,-0.411675,0.570075,-0.4312,-6.9003327,109.5175285,32.70000076293945,17.138735,2.189,87.910965
1776327897076,-11.7949505,11.418,11.01,19.39425,-0.6989125,0.3911875,-0.45045,-6.9003327,109.5175285,32.70000076293945,17.138735,2.189,87.910965
1776327897078,-22.632002,14.688001,31.03395,36.776764,-0.6989125,0.3911875,-0.45045,-6.9003327,109.5175285,32.70000076293945,17.138735,2.189,87.910965
1776327897082,-11.043,9.852,13.9459505,23.623098,0.243925,-0.308,0.2435125,-6.9003327,109.5175285,32.70000076293945,17.138735,2.189,87.910965
1776327897089,11.332951,6.97095,-6.1450505,16.449236,0.488675,-0.51975,0.5159,-6.9003327,109.5175285,32.70000076293945,17.138735,2.189,87.910965
1776327897094,20.128052,5.81895,-14.602051,23.720701,0.09075,-0.3185875,0.14025,-6.9003327,109.5175285,32.70000076293945,17.138735,2.189,87.910965
1776327897097,8.385,5.373,-8.47305,15.204578,-0.3306875,0.26345,-0.4855125,-6.9003327,109.5175285,32.70000076293945,17.138735,2.189,87.910965
1776327897104,-12.031951,8.415,13.00695,18.733171,-0.605275,0.75405,-0.5685625,-6.9003327,109.5175285,32.70000076293945,17.138735,2.189,87.910965
1776327897109,-22.39005,12.642,20.52495,30.06661,-0.0284625,0.389125,-0.328075,-6.9003327,109.5175285,32.70000076293945,17.138735,2.189,87.910965
1776327897114,-4.6860003,17.265001,6.0810003,21.129246,0.176825,-0.6942375,0.361625,-6.9003327,109.5175285,32.70000076293945,17.138735,2.189,87.910965
1776327897118,16.794,5.1270003,-10.497001,20.591894,0.276925,-0.1865875,0.6595875,-6.9003327,109.5175285,32.70000076293945,17.138735,2.189,87.910965
1776327897131,25.428001,0.23595001,-4.0690503,24.720455,-0.583,-0.412225,0.0583,-6.9003327,109.5175285,32.70000076293945,17.138735,2.189,87.910965
1776327897131,2.637,1.5960001,12.745951,15.43478,-0.3499375,0.893475,-0.6994625,-6.9003327,109.5175285,32.70000076293945,17.138735,2.189,87.910965
1776327897140,-24.333002,12.67605,26.84295,33.794052,-0.3499375,0.893475,-0.6994625,-6.9003327,109.5175285,32.70000076293945,17.138735,2.189,87.910965
1776327897141,-21.817951,18.45,17.08995,33.394028,0.3056625,-0.659175,0.523325,-6.9003327,109.5175285,32.70000076293945,17.138735,2.189,87.910965
1776327897145,-0.37005,12.26895,-2.9520001,16.778418,0.3056625,-0.659175,0.523325,-6.9003327,109.5175285,32.70000076293945,17.138735,2.189,87.910965
1776327897145,17.656052,2.013,-3.3259501,17.818884,0.0097624995,-0.1324125,0.408375,-6.9003327,109.5175285,32.70000076293945,17.138735,2.189,87.910965
1776327897146,20.865002,3.42405,1.23105,20.50769,0.0097624995,-0.1324125,0.408375,-6.9003327,109.5175285,32.70000076293945,17.138735,2.189,87.910965
1776327897150,0.74505,10.20405,-9.262951,15.142698,0.34925,0.2358125,-0.344025,-6.9003327,109.5175285,32.70000076293945,17.138735,2.189,87.910965
1776327897167,-7.8450003,18.393002,-2.8660502,19.188951,0.42267498,0.1890625,-0.6419875,-6.9003327,109.5175285,32.70000076293945,17.138735,2.189,87.910965
1776327897168,-15.579,15.741001,1.473,21.59444,-0.0358875,-0.2431,-0.015125,-6.9003327,109.5175285,32.70000076293945,17.138735,2.189,87.910965
1776327897168,-0.73905003,18.109951,2.4430501,18.950035,-0.0358875,-0.2431,-0.015125,-6.9003327,109.5175285,32.70000076293945,17.138735,2.189,87.910965
1776327897170,20.00805,4.9830003,-8.68395,21.688625,-0.147675,-0.4367,0.69355,-6.9003327,109.5175285,32.70000076293945,17.138735,2.189,87.910965
1776327897177,25.524002,0.56205004,-7.7140503,25.67385,-0.033825,-0.22495,0.2998875,-6.9003327,109.5175285,32.70000076293945,17.138735,2.189,87.910965
1776327897180,3.7099502,0.873,4.7899504,10.031755,-0.5808,0.13475,-0.41525,-6.9003327,109.5175285,32.70000076293945,17.138735,2.189,87.910965
1776327897186,-22.05495,12.352051,17.064001,26.405357,-0.003025,0.9733625,-0.865425,-6.9003327,109.5175285,32.70000076293945,17.138735,2.189,87.910965
1776327897195,-26.17695,21.091951,10.00605,33.340717,0.2737625,0.5231875,-0.6323625,-6.9003327,109.5175285,32.70000076293945,17.138735,2.189,87.910965
1776327897199,-6.42495,14.866951,-1.269,19.66455,0.31625,-0.3856875,0.091299996,-6.9003327,109.5175285,32.70000076293945,17.138735,2.189,87.910965
1776327897207,17.028,-1.9570501,2.505,17.790653,-0.38073748,-0.5006375,0.7393375,-6.9003327,109.5175285,32.70000076293945,17.138735,2.189,87.910965
1776327897211,21.004051,-7.12305,18.646952,26.739044,-0.6202625,-0.2195875,0.5435375,-6.9003327,109.5175285,32.70000076293945,17.138735,2.189,87.910965
1776327897216,-1.9390501,0.28395,11.788051,14.907681,-0.016775,0.2677125,-0.3460875,-6.9003327,109.5175285,32.70000076293945,17.138735,2.189,87.910965
1776327897219,-14.431951,20.48805,9.417001,24.398859,0.798325,0.2762375,-0.71115,-6.9003327,109.5175285,32.70000076293945,17.138735,2.189,87.910965
1776327897233,-19.329,25.045952,-12.681001,32.146957,-0.2327875,-0.593175,0.8234875,-6.9003327,109.5175285,32.70000076293945,17.138735,2.189,87.910965
1776327897233,3.2710502,24.268051,-18.802952,31.1284,-0.2327875,-0.593175,0.8234875,-6.9003327,109.5175285,32.70000076293945,17.138735,2.189,87.910965
1776327897238,25.090052,5.41695,-21.258001,32.888092,-0.621225,-0.5069625,0.5350125,-6.9003327,109.5175285,32.70000076293945,17.138735,2.189,87.910965
1776327897238,32.4,-0.85305005,-6.94995,33.096016,-0.621225,-0.5069625,0.5350125,-6.9003327,109.5175285,32.70000076293945,17.138735,2.189,87.910965
1776327897243,8.742001,0.37995002,6.1050005,15.154793,-0.607475,0.46035,-0.296175,-6.9003327,109.5175285,32.70000076293945,17.138735,2.189,87.910965
1776327897246,-21.817951,15.150001,19.392,29.341051,-0.0594,1.1042625,-1.0580626,-6.9003327,109.5175285,32.70000076293945,17.138735,2.189,87.910965
1776327897251,-28.216951,21.408,4.87605,34.470585,0.3471875,0.5880875,-0.9208375,-6.9003327,109.5175285,32.70000076293945,17.138735,2.189,87.910965
1776327897263,-5.5270505,15.793951,-8.281051,21.830204,0.4217125,-0.32395,-0.0108624995,-6.9003327,109.5175285,32.70000076293945,17.138735,2.189,87.910965
