timestamp,ax,ay,az,gx,gy,gz,lin_ax,lin_ay,lin_az,grav_x,grav_y,grav_z,speed,lat,lon
1780724374205,0.47205,12.196951,-0.282,0.0331375,0.038775,-0.075075,2.7959106,-0.9850702,-2.659668,1.2971394,9.419121,2.4016678,0.0,-6.9792196,110.4087272
1780724374224,-1.5970501,9.603001,4.854,-0.17545,0.0506,0.0281875,-0.8209197,2.774128,-2.6713595,1.2929697,9.422823,2.3893595,0.0,-6.9792196,110.4087272
1780724374224,4.3660502,6.3580503,4.0810504,-0.17545,0.0506,0.0281875,-0.8209197,2.774128,-2.6713595,1.2710273,9.425051,2.3923447,0.0,-6.9792196,110.4087272
1780724374224,0.25095,11.0140505,-0.75600004,-0.17545,0.0506,0.0281875,-0.8209197,2.774128,-2.6713595,1.2710273,9.425051,2.3923447,0.0,-6.9792196,110.4087272
1780724374224,-3.93405,12.340951,-0.165,-0.17545,0.0506,0.0281875,-0.8209197,2.774128,-2.6713595,1.2710273,9.425051,2.3923447,0.0,-6.9792196,110.4087272
1780724374423,1.8079501,7.3830004,6.0660005,-0.2883375,-0.0633875,0.109037496,-5.205077,2.9159002,-2.5573447,1.2710273,9.425051,2.3923447,0.0,-6.9792196,110.4087272
1780724374423,1.8250501,7.4689503,6.7320004,-0.2883375,-0.0633875,0.109037496,-5.205077,2.9159002,-2.5573447,1.2710273,9.425051,2.3923447,0.0,-6.9792196,110.4087272
1780724374423,-0.15195,10.76895,-0.117000006,-0.2883375,-0.0633875,0.109037496,-5.205077,2.9159002,-2.5573447,1.2710273,9.425051,2.3923447,0.0,-6.9792196,110.4087272
1780724374423,2.7520502,9.61005,-1.7479501,-0.2883375,-0.0633875,0.109037496,-5.205077,2.9159002,-2.5573447,1.2710273,9.425051,2.3923447,0.0,-6.9792196,110.4087272
1780724374423,-0.32505003,9.555,6.4690504,-0.2883375,-0.0633875,0.109037496,-5.205077,2.9159002,-2.5573447,1.2710273,9.425051,2.3923447,0.0,-6.9792196,110.4087272
1780724374423,-1.95105,9.625051,5.8549504,-0.2883375,-0.0633875,0.109037496,-5.205077,2.9159002,-2.5573447,1.2710273,9.425051,2.3923447,0.0,-6.9792196,110.4087272
1780724374423,5.20695,8.137051,-2.6170502,-0.2883375,-0.0633875,0.109037496,-5.205077,2.9159002,-2.5573447,1.2710273,9.425051,2.3923447,0.0,-6.9792196,110.4087272
1780724374423,1.3219501,11.47095,0.040050004,-0.2883375,-0.0633875,0.109037496,-5.205077,2.9159002,-2.5573447,1.2710273,9.425051,2.3923447,0.0,-6.9792196,110.4087272
1780724374423,-5.5270505,11.4210005,7.65705,-0.2883375,-0.0633875,0.109037496,-5.205077,2.9159002,-2.5573447,1.2710273,9.425051,2.3923447,0.0,-6.9792196,110.4087272
1780724374423,1.9300501,6.8820004,3.9540002,-0.2883375,-0.0633875,0.109037496,-5.205077,2.9159002,-2.5573447,1.2710273,9.425051,2.3923447,0.0,-6.9792196,110.4087272
1780724374423,4.6009502,9.783,-1.3120501,-0.2883375,-0.0633875,0.109037496,-5.205077,2.9159002,-2.5573447,1.2710273,9.425051,2.3923447,0.0,-6.9792196,110.4087272
1780724374424,-1.59405,12.016951,1.83405,-0.2883375,-0.0633875,0.109037496,-5.205077,2.9159002,-2.5573447,1.2710273,9.425051,2.3923447,0.0,-6.9792196,110.4087272
1780724374424,1.3549501,7.7539506,4.6990504,-0.2883375,-0.0633875,0.109037496,-5.205077,2.9159002,-2.5573447,1.2710273,9.425051,2.3923447,0.0,-6.9792196,110.4087272
1780724374424,2.3130002,8.755051,1.65495,-0.2883375,-0.0633875,0.109037496,-5.205077,2.9159002,-2.5573447,1.2710273,9.425051,2.3923447,0.0,-6.9792196,110.4087272
1780724374424,-3.177,12.343051,-0.22695,-0.2883375,-0.0633875,0.109037496,-5.205077,2.9159002,-2.5573447,1.2710273,9.425051,2.3923447,0.0,-6.9792196,110.4087272
1780724374424,0.18405001,8.488951,3.18,-0.2883375,-0.0633875,0.109037496,-5.205077,2.9159002,-2.5573447,1.2710273,9.425051,2.3923447,0.0,-6.9792196,110.4087272
1780724374424,2.7469501,7.3300505,6.471,-0.2883375,-0.0633875,0.109037496,-5.205077,2.9159002,-2.5573447,1.2710273,9.425051,2.3923447,0.0,-6.9792196,110.4087272
1780724374424,-1.2229501,10.683001,2.193,-0.2883375,-0.0633875,0.109037496,-5.205077,2.9159002,-2.5573447,1.2710273,9.425051,2.3923447,0.0,-6.9792196,110.4087272
1780724374424,2.043,9.58395,-1.863,-0.2883375,-0.0633875,0.109037496,-5.205077,2.9159002,-2.5573447,1.2710273,9.425051,2.3923447,0.0,-6.9792196,110.4087272
1780724374424,2.73495,8.413051,4.5480003,-0.2883375,-0.0633875,0.109037496,-5.205077,2.9159002,-2.5573447,1.2881585,9.378899,2.5587773,0.0,-6.9792196,110.4087272
1780724374424,-3.2350502,10.180051,6.42495,-0.2883375,-0.0633875,0.109037496,-5.205077,2.9159002,-2.5573447,1.2979602,9.395924,2.490448,0.0,-6.9792196,110.4087272
1780724374424,2.0020502,9.411,-1.1179501,-0.2883375,-0.0633875,0.109037496,-5.205077,2.9159002,-2.5573447,1.3540227,9.409741,2.4070308,0.0,-6.9792196,110.4087272
1780724374424,3.55605,10.37895,-0.186,-0.2883375,-0.0633875,0.109037496,-5.205077,2.9159002,-2.5573447,1.3691739,9.407623,2.4067333,0.0,-6.9792196,110.4087272
1780724374424,-3.834,10.654051,6.7819505,-0.2883375,-0.0633875,0.109037496,-5.205077,2.9159002,-2.5573447,1.3691739,9.407623,2.4067333,0.0,-6.9792196,110.4087272
1780724374424,1.0350001,7.668,3.6180003,-0.2883375,-0.0633875,0.109037496,-5.205077,2.9159002,-2.5573447,1.3691739,9.407623,2.4067333,0.0,-6.9792196,110.4087272
1780724374424,4.3369503,10.07505,-1.79295,-0.2883375,-0.0633875,0.109037496,-5.205077,2.9159002,-2.5573447,1.3673013,9.394452,2.4586945,0.0,-6.9792196,110.4087272
1780724374424,-2.5140002,12.283051,2.3160002,-0.2883375,-0.0633875,0.109037496,-5.205077,2.9159002,-2.5573447,1.4274136,9.413323,2.3499463,0.0,-6.9792196,110.4087272
1780724374424,0.9990001,7.4689503,5.499,-0.2883375,-0.0633875,0.109037496,-5.205077,2.9159002,-2.5573447,1.4272044,9.412286,2.3542228,0.0,-6.9792196,110.4087272
1780724374424,4.3639503,7.8160505,1.5180001,-0.2883375,-0.0633875,0.109037496,-5.205077,2.9159002,-2.5573447,1.4272044,9.412286,2.3542228,0.0,-6.9792196,110.4087272
1780724374424,-2.9620502,12.685051,-1.266,-0.2883375,-0.0633875,0.109037496,-5.205077,2.9159002,-2.5573447,1.4364415,9.416634,2.331109,0.0,-6.9792196,110.4087272
1780724374424,-1.5679501,9.780001,2.67195,-0.2883375,-0.0633875,0.109037496,-5.205077,2.9159002,-2.5573447,1.4364415,9.416634,2.331109,0.0,-6.9792196,110.4087272
1780724374424,2.7180002,7.04505,7.0410004,-0.2883375,-0.0633875,0.109037496,-5.205077,2.9159002,-2.5573447,1.4364415,9.416634,2.331109,0.0,-6.9792196,110.4087272
1780724374424,-0.25500003,9.687,3.7069502,-0.2883375,-0.0633875,0.109037496,-5.205077,2.9159002,-2.5573447,1.4301512,9.408437,2.3677783,0.0,-6.9792196,110.4087272
1780724374424,1.8919501,9.615001,-2.4780002,-0.2883375,-0.0633875,0.109037496,-5.205077,2.9159002,-2.5573447,1.4301512,9.408437,2.3677783,0.0,-6.9792196,110.4087272
1780724374424,3.111,9.12405,3.0340502,-0.2883375,-0.0633875,0.109037496,-5.205077,2.9159002,-2.5573447,1.4301512,9.408437,2.3677783,0.0,-6.9792196,110.4087272
1780724374424,-3.6400502,10.609051,7.32105,-0.2883375,-0.0633875,0.109037496,1.4462019,0.20986748,-4.218113,1.4566791,9.406141,2.360718,0.0,-6.9792196,110.4087272
1780724374424,1.7389501,8.596951,0.10005,-0.2883375,-0.0633875,0.109037496,3.8364117,-1.2707186,-5.0224338,1.4566791,9.406141,2.360718,0.0,-6.9792196,110.4087272
1780724374424,5.0869503,9.658051,-1.5870001,-0.2883375,-0.0633875,0.109037496,-6.881073,2.011259,5.250019,1.4566791,9.406141,2.360718,0.0,-6.9792196,110.4087272
1780724374424,-4.3390503,11.842051,5.7520504,-0.2883375,-0.0633875,0.109037496,3.2181342,0.37052536,-3.6918783,1.4566791,9.406141,2.360718,0.0,-6.9792196,110.4087272
1780724374424,-1.2780001,8.41695,5.21595,-0.2883375,-0.0633875,0.109037496,-0.020603538,-1.6529565,2.2931514,1.4566791,9.406141,2.360718,0.0,-6.9792196,110.4087272
1780724374424,5.40495,8.628,-0.56895,-0.2883375,-0.0633875,0.109037496,0.9275898,-0.6525526,-0.7425548,1.4566791,9.406141,2.360718,0.0,-6.9792196,110.4087272
1780724374427,-0.80100006,11.845051,1.4940001,0.0044,0.082499996,-0.0952875,3.948271,-0.778141,-2.929668,1.4566791,9.406141,2.360718,0.0,-6.9792196,110.4087272
1780724377215,0.41700003,9.859051,2.73495,,,,0.15949214,-0.33917713,-0.41693187,,,,1.0531217,-6.9791433,110.40862
1780724377215,1.116,10.401,1.21905,,,,0.15949214,-0.33917713,-0.41693187,1.1744579,9.398128,2.542882,1.0531217,-6.9791433,110.40862
1780724377216,0.66105,9.13395,3.1320002,0.1683,0.051425,-0.0517,0.15949214,-0.33917713,-0.41693187,1.1744579,9.398128,2.542882,1.0531217,-6.9791433,110.40862
1780724377220,0.40905002,10.365001,1.8730501,0.1683,0.051425,-0.0517,0.15949214,-0.33917713,-0.41693187,1.1744579,9.398128,2.542882,1.0531217,-6.9791433,110.40862
1780724377220,1.33395,9.05895,2.12595,0.1683,0.051425,-0.0517,0.15949214,-0.33917713,-0.41693187,1.1744579,9.398128,2.542882,1.0531217,-6.9791433,110.40862
1780724377226,-0.55200005,9.591001,2.6800501,0.1683,0.051425,-0.0517,-1.7099339,0.192832,0.12975764,1.1579338,9.398169,2.5502925,1.0531217,-6.9791433,110.40862
1780724377228,0.51000005,9.33195,3.6520503,0.177925,-0.010175,0.004675,-0.641144,-0.06409073,1.0908663,1.151144,9.396041,2.561184,1.0531217,-6.9791433,110.40862
1780724377238,1.41495,9.40905,1.9590001,-0.1530375,0.0471625,-0.030524999,0.25909507,0.008401871,-0.5830908,1.155855,9.400648,2.542091,1.0531217,-6.9791433,110.40862
1780724377249,1.0489501,9.358951,2.25105,0.13213749,-0.06875,0.0664125,-0.10686016,-0.039834023,-0.29793715,1.1558102,9.398785,2.5489872,1.0531217,-6.9791433,110.40862
1780724377259,-0.40395,10.647,2.7850502,-0.117975,0.067375,-0.0570625,-1.5582627,1.2454281,0.24567842,1.1543127,9.401572,2.5393717,1.0531217,-6.9791433,110.40862
1780724377268,1.5330001,8.99505,2.2410002,0.1023,-0.046475,0.004675,0.38373363,-0.40490818,-0.30661678,1.1492665,9.399959,2.547617,1.0531217,-6.9791433,110.40862
1780724377284,0.49095002,9.91695,2.838,0.128975,-0.0177375,0.0121,-0.6563598,0.51572704,0.29416943,1.1473098,9.401223,2.5438306,1.0531217,-6.9791433,110.40862
1780724377294,0.59595,9.89805,0.87105006,-0.1967625,-0.0198,0.021724999,-0.5497769,0.49040318,-1.6496379,1.1457269,9.407647,2.520688,1.0531217,-6.9791433,110.40862
1780724377304,0.028950002,8.65695,4.287,0.20019999,0.0323125,-0.00275,-1.1001456,-0.7445612,1.7360923,1.1290956,9.401511,2.5509079,1.0531217,-6.9791433,110.40862
1780724377314,1.1689501,9.64095,1.18305,-0.2019875,0.0334125,-0.00605,0.034977913,0.23128414,-1.3354217,1.1339722,9.409666,2.5184717,1.0531217,-6.9791433,110.40862
1780724377325,0.39705002,9.328051,4.15005,0.15235,-0.0878625,0.069575,-0.73380196,-0.07841301,1.6182513,1.130852,9.406464,2.5317988,1.0531217,-6.9791433,110.40862
1780724377334,1.3549501,10.089001,1.0339501,-0.1137125,0.087725,-0.0592625,0.2221098,0.67954445,-1.4858086,1.1328403,9.409456,2.5197587,1.0531217,-6.9791433,110.40862
1780724377343,0.13905,9.517051,3.3310502,0.0991375,-0.0336875,-0.00275,-0.9840907,0.108478546,0.80366564,1.1231407,9.408572,2.5273845,1.0531217,-6.9791433,110.40862
1780724377356,0.76395005,10.153951,1.5370501,-0.083875,-0.0411125,0.054725,-0.35686225,0.74305725,-0.982725,1.1208123,9.410893,2.5197752,1.0531217,-6.9791433,110.40862
1780724377364,1.30005,8.940001,2.802,0.062975,0.070675,-0.078375,0.17848074,-0.46781063,0.27107978,1.1215693,9.407811,2.5309203,1.0531217,-6.9791433,110.40862
1780724377374,-0.54495,10.07505,1.5780001,-0.070125,-0.00605,0.052525,-1.6501672,0.6607542,-0.9359422,1.1052172,9.414296,2.5139422,1.0531217,-6.9791433,110.40862
1780724377385,0.546,8.911051,4.7179503,-0.070125,-0.00605,0.052525,-0.556792,-0.4941845,2.169262,1.102792,9.405235,2.5486884,1.0531217,-6.9791433,110.40862
1780724377405,1.47,9.603001,0.99105006,0.05335,-0.0539,0.018424999,0.35797107,0.18846989,-1.5190115,1.112029,9.414531,2.5100615,1.0531217,-6.9791433,110.40862
1780724377410,1.008,10.24005,0.86700004,-0.148775,0.0961125,-0.125125,-0.10346949,0.82416916,-1.6382396,1.1114695,9.415881,2.5052397,1.0531217,-6.9791433,110.40862
1780724377420,-0.41295,9.217051,3.9829502,0.1034,-0.0528,0.0248875,-1.4889251,-0.19285679,1.4400537,1.0759751,9.409907,2.5428965,1.0531217,-6.9791433,110.40862
1780724377544,1.149,9.91905,1.9950001,0.1799875,-0.00385,-0.0974875,-1.1344476,0.1702261,-0.48496866,1.0514976,9.418824,2.5200188,1.0531217,-6.9791433,110.40862
1780724377544,1.1380501,9.4810505,2.22,0.1799875,-0.00385,-0.0974875,-0.04596764,-0.96328163,0.542681,1.0514976,9.418824,2.5200188,1.0531217,-6.9791433,110.40862
1780724377545,-0.08295,9.58905,2.0350502,0.1799875,-0.00385,-0.0974875,-0.04596764,-0.96328163,0.542681,1.0299677,9.419232,2.5273693,1.0531217,-6.9791433,110.40862
1780724377545,0.65895003,9.328051,3.5110502,0.1799875,-0.00385,-0.0974875,-0.04596764,-0.96328163,0.542681,1.0299677,9.419232,2.5273693,1.0531217,-6.9791433,110.40862
1780724377545,1.4779501,9.26805,1.7380501,0.1799875,-0.00385,-0.0974875,-0.04596764,-0.96328163,0.542681,1.0299677,9.419232,2.5273693,1.0531217,-6.9791433,110.40862
1780724377545,0.591,9.471001,2.9479501,0.1799875,-0.00385,-0.0974875,-0.04596764,-0.96328163,0.542681,1.0299677,9.419232,2.5273693,1.0531217,-6.9791433,110.40862
1780724377545,0.30900002,10.293,2.265,0.1799875,-0.00385,-0.0974875,-0.04596764,-0.96328163,0.542681,1.0299677,9.419232,2.5273693,1.0531217,-6.9791433,110.40862
1780724377545,0.79995006,9.14805,2.9260502,0.1799875,-0.00385,-0.0974875,-0.04596764,-0.96328163,0.542681,1.0299677,9.419232,2.5273693,1.0531217,-6.9791433,110.40862
1780724377545,0.51195,9.979051,2.73195,0.1799875,-0.00385,-0.0974875,-0.04596764,-0.96328163,0.542681,1.0220301,9.419744,2.5286956,1.0531217,-6.9791433,110.40862
1780724377545,0.453,10.116,1.00605,0.1799875,-0.00385,-0.0974875,-0.6630801,-0.029743195,1.0873547,1.0220301,9.419744,2.5286956,1.0531217,-6.9791433,110.40862
1780724377545,0.984,8.455951,3.0700502,-0.119075,-0.07095,0.0556875,-0.6630801,-0.029743195,1.0873547,1.0220301,9.419744,2.5286956,1.0531217,-6.9791433,110.40862
1780724377545,0.35895002,9.39,3.6160502,-0.119075,-0.07095,0.0556875,-0.6630801,-0.029743195,1.0873547,1.0220301,9.419744,2.5286956,1.0531217,-6.9791433,110.40862
1780724377553,0.68700004,10.048051,1.50405,0.1076625,-0.046475,0.014162499,-0.330446,0.62771034,-1.0242691,1.017446,9.420341,2.5283191,1.0531217,-6.9791433,110.40862
1780724377563,1.4899501,8.829,3.0319502,0.1651375,-0.10175,0.0727375,0.46334398,-0.5915327,0.50806,1.0266061,9.420533,2.5238903,1.0531217,-6.9791433,110.40862
1780724377573,-0.58605003,10.879951,2.148,-0.1296625,0.0834625,-0.0262625,-1.5958853,1.4589148,-0.38077617,1.0098352,9.421036,2.5287762,1.0531217,-6.9791433,110.40862
1780724377584,1.2739501,9.283951,1.7550001,-0.1584,0.101475,-0.036849998,0.25223267,-0.1399517,-0.7582729,1.0217174,9.4239025,2.513273,1.0531217,-6.9791433,110.40862
1780724377594,0.72300005,9.045,3.7690501,-0.099825,-0.077275,0.061049998,-0.288805,-0.3672495,1.2085421,1.011805,9.41225,2.560508,1.0531217,-6.9791433,110.40862
1780724377604,0.23700002,10.342951,0.94305,-0.2882,-0.044275,0.085525,-0.7644099,0.9213047,-1.5868057,1.0014099,9.421646,2.5298557,1.0531217,-6.9791433,110.40862
1780724377614,0.63900006,8.875051,3.525,0.21615,-0.0251625,-0.0314875,-0.36193144,-0.53722763,0.9603255,1.0009315,9.412278,2.5646746,1.0531217,-6.9791433,110.40862
1780724377624,0.666,9.379951,3.27795,-0.089237496,0.061049998,-0.0262625,-0.32916868,-0.034142494,0.7177031,0.9951687,9.414093,2.560247,1.0531217,-6.9791433,110.40862
1780724377634,0.37095,10.044001,1.3620001,0.031075,-0.1166,0.03025,-0.61799204,0.6273899,-1.1913925,0.9889421,9.416611,2.5533926,1.0531217,-6.9791433,110.40862
1780724377652,1.914,8.82495,2.7130501,0.11825,0.0462,-0.0209,0.9154005,-0.591382,0.16238308,0.9985995,9.416332,2.550667,1.0531217,-6.9791433,110.40862
1780724377654,-0.41805002,10.495951,2.5459502,0.045925,-0.028324999,0.0567875,-1.4016262,1.0790548,-0.0084655285,0.9835762,9.416896,2.5544157,1.0531217,-6.9791433,110.40862
1780724377664,0.108,9.571951,2.3800502,0.043725,-0.115637496,0.070675,-0.86136824,0.15141582,-0.16636634,0.9693682,9.420535,2.5464165,1.0531217,-6.9791433,110.40862
1780724377686,1.6860001,9.153001,3.62595,-0.17545,0.0589875,0.014162499,0.037400365,0.60564995,-1.7448447,0.9776497,9.42335,2.5327947,1.0531217,-6.9791433,110.40862
1780724377686,1.01505,10.029,0.78795004,-0.17545,0.0589875,0.014162499,0.037400365,0.60564995,-1.7448447,0.9776497,9.42335,2.5327947,1.0531217,-6.9791433,110.40862
1780724377696,-0.684,9.67695,2.289,0.11935,0.0462,-0.0187,-1.6353979,0.25437927,-0.2566619,0.95139796,9.422571,2.545662,1.0531217,-6.9791433,110.40862
1780724377704,1.08,8.53695,4.263,-0.0297,-0.0209,0.0482625,0.12794948,-0.8807688,1.6996851,0.95205057,9.417719,2.563315,1.0531217,-6.9791433,110.40862
1780724377715,0.80205005,9.94305,1.2019501,0.0097624995,-0.0666875,-0.00385,-0.14802045,0.5207691,-1.3452823,0.9500705,9.422281,2.5472324,1.0531217,-6.9791433,110.40862
1780724377730,0.72105,9.14805,3.2710502,0.1480875,-0.0837375,0.134475,-0.22881353,-0.27087498,0.7113669,0.94986355,9.418925,2.5596833,1.0531217,-6.9791433,110.40862
1780724377735,0.16995001,10.434001,2.5860002,0.0884125,-0.115637496,0.135575,-0.7648583,1.0147057,0.022134542,0.9348083,9.419295,2.5638657,1.0531217,-6.9791433,110.40862
1780724377744,0.94395006,9.547951,1.9159501,0.0884125,-0.115637496,0.135575,0.0028508306,0.12391949,-0.62813544,0.9410992,9.424031,2.5440855,1.0531217,-6.9791433,110.40862
1780724377752,1.02705,9.483001,3.015,-0.168025,0.0345125,0.0121,0.08516985,0.061231613,0.46284294,0.94188017,9.421769,2.5521572,1.0531217,-6.9791433,110.40862
1780724377763,0.39495003,9.79695,1.2739501,-0.021175,0.0504625,-0.0070125,-0.5348595,0.36415768,-1.241651,0.9298095,9.432793,2.5156012,1.0531217,-6.9791433,110.40862
1780724377773,-0.13995,9.366,2.8620002,-0.0158125,0.0345125,-0.0092124995,-1.0395123,-0.06445503,0.32670712,0.89956224,9.430455,2.535293,1.0531217,-6.9791433,110.40862
1780724377783,1.17795,8.691,3.6499503,0.176825,-0.0644875,0.0589875,0.2738852,-0.7358799,1.102989,0.90406483,9.42688,2.5469613,1.0531217,-6.9791433,110.40862
1780724377798,0.63195,9.96195,2.56005,0.15235,-0.126225,0.1472625,-0.2655068,0.53469753,0.012136698,0.8974568,9.427253,2.5479133,1.0531217,-6.9791433,110.40862
1780724377803,1.7530501,9.507001,1.24995,0.15235,-0.126225,0.1472625,0.82707506,0.07230759,-1.2599331,0.925975,9.434693,2.5098832,1.0531217,-6.9791433,110.40862
1780724377813,-0.85695004,10.128,4.33005,-0.1478125,0.12815,-0.06875,-1.7641654,0.69609356,1.802897,0.9072154,9.431907,2.527153,1.0531217,-6.9791433,110.40862
1780724377823,1.7989501,9.835051,0.54300004,0.16293749,-0.0474375,-0.0528,0.8682945,0.3934698,-1.9391022,0.9306556,9.441581,2.4821022,1.0531217,-6.9791433,110.40862
1780724377833,1.0200001,9.14295,3.3979502,0.1566125,0.0100375,-0.03795,0.08813894,-0.2865591,0.87081766,0.93186116,9.429509,2.5271325,1.0531217,-6.9791433,110.40862
1780724377843,-0.43005002,10.18305,0.92595005,-0.1925,-0.012375,0.09185,-1.3417689,0.7435427,-1.5710235,0.91171885,9.4395075,2.4969735,1.0531217,-6.9791433,110.40862
1780724377853,0.40695003,8.941951,4.335,0.1703625,0.0312125,-0.0103124995,-0.50017595,-0.48428917,1.7867594,0.90712595,9.42624,2.5482407,1.0531217,-6.9791433,110.40862
1780724377863,2.124,9.141001,1.11105,0.092675,-0.0911625,0.09405,1.1987855,-0.29072952,-1.4102303,0.9252146,9.43173,2.5212803,1.0531217,-6.9791433,110.40862
1780724377874,-0.47100002,9.77295,4.3969502,0.2118875,-0.141075,0.1302125,-1.3795589,0.3456955,1.8529854,0.9085589,9.427255,2.5439649,1.0531217,-6.9791433,110.40862
1780724377884,1.9879501,10.17105,0.0139500005,-0.21807499,0.1643125,-0.13695,1.0612307,0.7353134,-2.491734,0.9267194,9.435737,2.5056841,1.0531217,-6.9791433,110.40862
1780724377894,-0.33900002,9.13605,4.6150503,0.2044625,-0.115637496,0.011,-1.2449821,-0.2915268,2.0713525,0.9059821,9.427577,2.5436978,1.0531217,-6.9791433,110.40862
1780724377904,0.69195,10.468051,0.97200006,-0.1925,-0.030524999,0.0886875,-0.21107876,1.0332956,-1.5460026,0.9030288,9.434755,2.5180027,1.0531217,-6.9791433,110.40862
1780724377914,1.71,8.736,2.9599502,0.1810875,0.0908875,-0.1315875,0.7987859,-0.69625187,0.4355352,0.9112141,9.432252,2.524415,1.0531217,-6.9791433,110.40862
1780724377924,-0.70995003,10.116,1.60395,-0.1467125,-6.875E-4,0.054725,-1.6016396,0.67953014,-0.9116645,0.8916896,9.43647,2.5156145,1.0531217,-6.9791433,110.40862
1780724377934,0.42900002,8.81295,4.7059503,0.18535,-0.0974875,0.0631125,-0.45613623,-0.6110172,2.1416247,0.88513625,9.423967,2.5643256,1.0531217,-6.9791433,110.40862
1780724377947,2.25795,9.41895,0.93600005,0.0374,0.004675,-0.062425,1.336595,-0.012386322,-1.5881584,0.921355,9.431336,2.5241585,1.0531217,-6.9791433,110.40862
1780724377957,0.049950004,9.486,3.4770002,-0.0413875,0.06215,-0.1208625,-0.8573487,0.05425453,0.94927573,0.9072987,9.431746,2.5277245,1.0531217,-6.9791433,110.40862
1780724377967,0.043050002,10.755,1.4680501,0.0427625,-0.13475,0.151525,-0.8498399,1.3223953,-1.0615987,0.8928899,9.432605,2.5296488,1.0531217,-6.9791433,110.40862
1780724377978,1.296,8.784,3.1660502,0.1874125,-0.0633875,-0.03575,0.38874835,-0.6467447,0.63457704,0.90725166,9.430745,2.5314732,1.0531217,-6.9791433,110.40862
1780724377986,0.63495004,10.11795,2.1700501,0.127875,4.125E-4,-0.045375,-0.26608348,0.68717384,-0.36352205,0.9010335,9.430777,2.5335722,1.0531217,-6.9791433,110.40862
1780724377997,0.43095002,9.61005,1.7550001,-0.2052875,-0.036849998,0.0812625,-0.4506028,0.16855812,-0.7452941,0.8815528,9.441492,2.5002942,1.0531217,-6.9791433,110.40862
1780724378007,0.12705001,9.1380005,3.4440002,-0.1381875,-0.00495,0.014162499,-0.73769903,-0.293705,0.90125275,0.864749,9.431705,2.5427475,1.0531217,-6.9791433,110.40862
1780724378017,0.99105006,9.30795,2.2770002,-0.1882375,0.0642125,-0.03795,0.122698665,-0.12835693,-0.24737453,0.8683514,9.436307,2.5243747,1.0531217,-6.9791433,110.40862
1780724378028,0.51000005,9.60795,3.384,0.223575,-0.142175,0.1142625,-0.3467337,0.17668247,0.8369236,0.85673374,9.431268,2.5470765,1.0531217,-6.9791433,110.40862
1780724378037,1.7910001,9.48795,0.90300006,-0.2019875,0.1557875,-0.161425,0.90625787,0.046157837,-1.5950308,0.88474226,9.4417925,2.498031,1.0531217,-6.9791433,110.40862
1780724378049,-1.5079501,10.306951,4.05195,0.193875,-0.13585,0.0451,-2.3740022,0.86859226,1.5344663,0.8660522,9.438358,2.5174837,1.0531217,-6.9791433,110.40862
1780724378058,1.87995,9.60795,1.1200501,-0.1797125,0.003575,0.0653125,0.9824123,0.15912056,-1.3466183,0.89753777,9.44883,2.4666684,1.0531217,-6.9791433,110.40862
1780724378068,1.38405,9.049951,3.2280002,0.193875,0.09295,-0.1315875,0.47150755,-0.39039326,0.7344947,0.91254246,9.440344,2.4935055,1.0531217,-6.9791433,110.40862
1780724378080,-0.94500005,10.465051,0.69900006,-0.2349875,-0.0507375,0.0738375,0.47150755,-0.39039326,0.7344947,0.88903385,9.448746,2.4700685,1.0531217,-6.9791433,110.40862
1780724378088,0.49995002,8.50605,5.1870003,0.1991,-0.0911625,0.053625,-0.38502255,-0.9256935,2.651364,0.8849726,9.431744,2.5356362,1.0531217,-6.9791433,110.40862
1780724378100,2.3110502,9.29205,0.615,-0.1307625,0.0067375,0.0089375,1.39653,-0.14739227,-1.8811903,0.91452014,9.439443,2.4961903,1.0531217,-6.9791433,110.40862
1780724378111,-0.91395,9.78705,4.48995,0.18425,-0.1071125,0.0801625,-1.8095846,0.349905,1.9782677,0.89563453,9.437145,2.5116825,1.0531217,-6.9791433,110.40862
1780724378118,1.605,10.25205,0.31800002,-0.091437496,0.0015125,0.0749375,0.70364034,0.8084831,-2.1673567,0.9013597,9.443567,2.4853568,1.0531217,-6.9791433,110.40862
1780724378135,0.13605,9.117001,3.9900002,0.1788875,-0.16665,0.09185,-0.7554324,-0.3187151,1.4714878,0.8914824,9.435716,2.5185125,1.0531217,-6.9791433,110.40862
1780724378146,0.57705003,10.365001,1.33095,0.1566125,0.003575,-0.043175,-0.30549973,0.9254074,-1.1761568,0.8936481,9.437727,2.5101976,1.0531217,-6.9791433,110.40862
1780724378146,1.3909501,8.97105,2.6170502,0.127875,0.086625,-0.0974875,0.497302,-0.4666767,0.10685253,0.8936481,9.437727,2.5101976,1.0531217,-6.9791433,110.40862
1780724378156,-0.47100002,9.859051,2.1049502,-0.1285625,0.0163625,0.018424999,-1.3386562,0.4167614,-0.3971982,0.8676561,9.442289,2.5021484,1.0531217,-6.9791433,110.40862
1780724378166,0.61095005,8.93505,4.1929502,0.2118875,4.125E-4,-0.030524999,-0.25091434,-0.49513435,1.6435971,0.8618644,9.430184,2.5493531,1.0531217,-6.9791433,110.40862
1780724378176,1.674,9.58395,1.4130001,-0.1860375,0.0749375,-0.0474375,0.78129977,0.14567184,-1.0954633,0.89270025,9.438278,2.5084634,1.0531217,-6.9791433,110.40862
1780724378186,0.62295,9.328051,2.7130501,0.225775,-0.144375,0.117425,-0.26091254,-0.10971928,0.1995511,0.88386256,9.43777,2.513499,1.0531217,-6.9791433,110.40862
1780724378196,-0.56895,10.707001,2.32005,-0.0710875,-0.0400125,0.118525,-1.4376614,1.267437,-0.19199538,0.8687115,9.439564,2.5120454,1.0531217,-6.9791433,110.40862
1780724378206,1.473,8.82495,2.69895,0.0363,0.0886875,-0.0889625,0.5886684,-0.61251545,0.18447256,0.88433164,9.437466,2.5144775,1.0531217,-6.9791433,110.40862
1780724378217,0.73005,9.946051,2.5810502,0.0149875,-0.0474375,0.044,-0.14745557,0.5083742,0.06496978,0.8775056,9.437676,2.5160804,1.0531217,-6.9791433,110.40862
1780724378230,0.36900002,9.802051,1.2859501,-0.0881375,0.02915,0.0174625,-0.49525946,0.35315228,-1.1923083,0.8642595,9.448898,2.4782584,1.0531217,-6.9791433,110.40862
1780724378237,0.08400001,9.045,3.8100002,0.1139875,0.037675,-0.022,-0.7525517,-0.38969612,1.2689204,0.83655167,9.434696,2.5410798,1.0531217,-6.9791433,110.40862
1780724378247,1.3270501,9.30405,1.623,-0.103125,-0.0092124995,0.02805,0.48166978,-0.13612461,-0.89470303,0.8453803,9.440175,2.517703,1.0531217,-6.9791433,110.40862
1780724378257,0.033,9.735001,3.93195,0.143825,-0.0858,0.0397375,-0.8017648,0.2996378,1.39276,0.8347648,9.435363,2.53919,1.0531217,-6.9791433,110.40862
1780724378267,2.1049502,9.543,0.50505,-0.1403875,0.12815,-0.158125,1.2216136,0.09212494,-1.958904,0.8833365,9.450875,2.463954,1.0531217,-6.9791433,110.40862
1780724378282,-1.16505,10.141951,4.1790004,0.093775,0.021724999,-0.0581625,-2.0266075,0.69436836,1.6947887,0.86155754,9.447582,2.4842117,1.0531217,-6.9791433,110.40862
1780724378287,1.4610001,9.7560005,0.94305,0.093775,0.021724999,-0.0581625,0.5783919,0.29808044,-1.4939831,0.8826082,9.45792,2.4370332,1.0531217,-6.9791433,110.40862
1780724378298,1.41495,8.78895,3.8050501,0.2311375,0.02805,-0.076175,0.5201195,-0.65669346,1.3252335,0.8948305,9.445643,2.4798167,1.0531217,-6.9791433,110.40862
1780724378308,-0.51405,10.606951,0.47595003,-0.2882,-0.0251625,0.084425,-1.394724,1.1548519,-1.9842613,0.880674,9.452099,2.4602113,1.0531217,-6.9791433,110.40862
1780724378318,0.61995006,8.370001,5.4030004,-0.0275,0.015262499,-0.0209,-0.25646776,-1.0649786,2.8764524,0.8764178,9.434979,2.526548,1.0531217,-6.9791433,110.40862
1780724378327,1.46595,9.93105,0.32295,-0.2030875,0.0716375,-0.03575,0.5776839,0.4827633,-2.1491408,0.8882661,9.448287,2.472091,1.0531217,-6.9791433,110.40862
1780724378345,-0.03705,9.39,4.4500504,0.0149875,0.0143,-0.0474375,-0.91115105,-0.05115223,1.9458551,0.87410104,9.441153,2.5041952,1.0531217,-6.9791433,110.40862
1780724378349,1.9470001,9.859051,-0.040050004,0.0149875,0.0143,-0.0474375,1.0497155,0.4050846,-2.4870458,0.8972847,9.453966,2.4469957,1.0531217,-6.9791433,110.40862
1780724378358,-1.28505,9.688951,4.9450502,-0.0339625,-0.0177375,0.09185,-2.1619325,0.2401495,2.4708586,0.8768825,9.448801,2.4741917,1.0531217,-6.9791433,110.40862
1780724378368,1.7029501,10.000951,0.93795,0.0075625,0.0312125,-0.06765,0.81068385,0.544713,-1.5020958,0.8922663,9.456238,2.4400458,1.0531217,-6.9791433,110.40862
1780724378381,1.4610001,8.941951,3.31905,0.028875,-0.0528,0.0419375,0.55604506,-0.5060301,0.8518393,0.904955,9.447981,2.4672108,1.0531217,-6.9791433,110.40862
1780724378388,-0.72195005,10.486951,0.66300005,-0.0710875,0.05995,-0.0187,-1.6050636,1.0297108,-1.7764914,0.8831135,9.45724,2.4394915,1.0531217,-6.9791433,110.40862
1780724378400,0.58395004,8.58495,4.806,0.2044625,-0.027224999,0.0067375,-0.2941062,-0.8505182,2.281847,0.8780562,9.435469,2.5241532,1.0531217,-6.9791433,110.40862
1780724378410,1.8010501,9.411,0.75900006,-0.07645,-0.044275,0.0408375,0.9030894,-0.03348446,-1.724097,0.89796066,9.444485,2.483097,1.0531217,-6.9791433,110.40862
1780724378419,-0.61200005,9.699,4.1070004,0.1214125,-0.027224999,-0.0092124995,-1.4896333,0.25798893,1.6035118,0.87763333,9.441011,2.5034885,1.0531217,-6.9791433,110.40862
1780724378435,1.4130001,10.144051,1.09905,-0.1137125,0.0759,-0.117699996,0.5252619,0.6976204,-1.3803182,0.8877382,9.44643,2.4793682,1.0531217,-6.9791433,110.40862
1780724378439,0.31800002,9.364051,3.1060503,0.1310375,-0.13475,0.103675,-0.55300015,-0.078424454,0.6057677,0.8710002,9.442475,2.5002825,1.0531217,-6.9791433,110.40862
1780724378448,0.43800002,9.948001,2.09295,-0.1711875,0.09295,-0.0198,-0.4236434,0.502429,-0.39886665,0.86164343,9.445572,2.4918168,1.0531217,-6.9791433,110.40862
1780724378459,1.281,9.16695,2.184,0.0715,0.0738375,-0.07095,0.40945417,-0.27881527,-0.30363798,0.87154585,9.4457655,2.487638,1.0531217,-6.9791433,110.40862
1780724378469,-0.45705003,9.795,2.5069501,-0.2850375,-0.0251625,0.0812625,-1.304586,0.34781265,0.01642561,0.847536,9.447187,2.4905245,1.0531217,-6.9791433,110.40862
1780724378482,0.95295006,8.94705,3.8239503,0.2321,-0.00495,-0.022,0.10036379,-0.4882946,1.2906201,0.85258627,9.435345,2.5333302,1.0531217,-6.9791433,110.40862
1780724378489,0.66105,9.859051,1.71405,-0.1615625,0.0493625,-0.0155375,-0.188362,0.4188671,-0.80226517,0.849412,9.440184,2.5163152,1.0531217,-6.9791433,110.40862
1780724378499,1.38705,9.196051,2.4880502,0.1577125,-0.10065,0.0556875,0.5259043,-0.24313831,-0.028009653,0.86114573,9.439189,2.5160599,1.0531217,-6.9791433,110.40862
1780724378512,-0.12795001,10.49205,2.11905,-0.087175,0.03025,0.0334125,-0.9755871,1.0505934,-0.39308023,0.8476371,9.441457,2.5121303,1.0531217,-6.9791433,110.40862
1780724378522,0.29205,8.976001,3.3049502,0.060775,-0.028324999,-0.0240625,-0.55066985,-0.46162224,0.77680993,0.84271985,9.437623,2.5281403,1.0531217,-6.9791433,110.40862
1780724378530,1.1329501,10.06995,2.39205,-0.1265,0.084425,-0.0262625,0.2892111,0.63142204,-0.13237023,0.843739,9.438528,2.5244203,1.0531217,-6.9791433,110.40862
1780724378549,1.25205,9.48795,1.6620001,-0.185075,-0.076175,0.053625,0.39576435,0.044166565,-0.8384286,0.8562857,9.443784,2.5004287,1.0531217,-6.9791433,110.40862
1780724378552,-0.48795003,9.711,2.4109502,-0.185075,-0.076175,0.053625,-1.3165472,0.26620293,-0.094964266,0.8285972,9.4447975,2.5059144,1.0531217,-6.9791433,110.40862
1780724378567,1.0030501,9.031051,3.0889502,0.127875,-0.0187,-0.0017875,0.17062867,-0.4126463,0.58015466,0.8324214,9.443697,2.5087955,1.0531217,-6.9791433,110.40862
1780724378577,0.80505,9.535951,2.38995,-0.1040875,0.0759,-0.0815375,-0.024556637,0.0929718,-0.12248111,0.82960665,9.442979,2.5124311,1.0531217,-6.9791433,110.40862
1780724378585,0.92700005,9.402,2.328,0.08745,-0.092125,0.0994125,0.089315,-0.04358387,-0.17192984,0.83768505,9.445584,2.49993,1.0531217,-6.9791433,110.40862
1780724378592,-0.22395001,10.408051,2.9860501,-0.0658625,0.087725,-0.0325875,-1.044149,0.96342945,0.47670865,0.8201991,9.444621,2.5093415,1.0531217,-6.9791433,110.40862
1780724378602,1.19505,9.59595,1.5640501,0.0416625,-0.0347875,-0.0336875,0.35386717,0.14233303,-0.9041358,0.8411828,9.453617,2.468186,1.0531217,-6.9791433,110.40862
1780724378614,1.1590501,9.15795,3.2659502,-0.054175,-0.0539,0.05995,0.3079111,-0.28501797,0.76069164,0.851139,9.442968,2.5052586,1.0531217,-6.9791433,110.40862
1780724378623,-0.162,10.42905,0.675,0.0479875,0.070675,-0.062425,-0.99647486,0.97628593,-1.7987225,0.83447486,9.4527645,2.4737225,1.0531217,-6.9791433,110.40862
1780724378638,0.48795003,8.58495,4.05195,0.225775,0.0226875,-0.039049998,-0.34792215,-0.85645676,1.5356932,0.8358722,9.441407,2.5162568,1.0531217,-6.9791433,110.40862
1780724378644,0.82605004,9.568951,2.2699502,0.08635,-0.0559625,0.0451,-0.00887692,0.12157059,-0.2241013,0.83492696,9.44738,2.4940515,1.0531217,-6.9791433,110.40862
1780724378653,0.40005,9.543,3.3019502,-0.051975,0.0312125,-0.0677875,-0.424732,0.100958824,0.78441334,0.824782,9.442041,2.5175369,1.0531217,-6.9791433,110.40862
1780724378664,1.983,9.49005,0.744,0.0075625,-0.0177375,-0.0240625,1.1237149,0.036851883,-1.7195482,0.8592852,9.453198,2.4635482,1.0531217,-6.9791433,110.40862
1780724378677,-1.2919501,10.20405,4.4950504,-0.0317625,-0.0198,0.0972125,-2.133569,0.754961,2.0097346,0.8416189,9.449089,2.4853158,1.0531217,-6.9791433,110.40862
1780724378690,1.7149501,9.660001,0.9580501,1.375E-4,-0.0592625,0.0589875,0.8449904,0.19893551,-1.4713118,0.8699597,9.461065,2.4293618,1.0531217,-6.9791433,110.40862
1780724378693,1.1329501,9.093,3.4699502,1.375E-4,-0.0592625,0.0589875,0.25072646,-0.3543768,0.9922209,0.8822236,9.447377,2.4777293,1.0531217,-6.9791433,110.40862
1780724378703,-0.44505003,10.374001,0.711,-0.0477125,0.0556875,-0.00495,-1.3063074,0.9169359,-1.7369719,0.8612574,9.457065,2.4479718,1.0531217,-6.9791433,110.40862
1780724378724,0.43800002,8.743051,4.572,-0.0743875,-0.0325875,0.0334125,-0.41678172,-0.6961117,2.0536797,0.85478175,9.439162,2.5183203,1.0531217,-6.9791433,110.40862
1780724378729,1.8420001,9.19305,0.94095004,-0.1584,0.117425,-0.115637496,0.9716266,-0.2521,-1.5494288,0.87037355,9.44515,2.4903789,1.0531217,-6.9791433,110.40862
1780724378733,-0.75795,9.969001,4.2390003,-0.021175,0.0653125,-0.0900625,-1.6100786,0.5272465,1.729511,0.85212857,9.441754,2.5094893,1.0531217,-6.9791433,110.40862
1780724378762,-2.1379502,10.20405,4.497,-0.1892,-0.030524999,0.0801625,-3.002511,0.75518894,2.0187044,0.8645608,9.448861,2.4782958,1.0531217,-6.9791433,110.40862
1780724378767,3.9130502,6.6070504,5.202,0.1150875,-0.0389125,-0.00605,3.0145345,-2.8278832,2.6830573,0.89851564,9.434934,2.5189428,1.0531217,-6.9791433,110.40862
1780724378773,0.90795004,10.309951,-0.08595,0.1885125,0.0908875,-0.125125,0.0069875717,0.86705303,-2.5739884,0.9009625,9.442898,2.4880385,1.0531217,-6.9791433,110.40862
1780724378777,-3.759,12.43395,-0.83295006,0.1885125,0.0908875,-0.125125,-4.645391,2.9854622,-3.3049512,0.8863909,9.448488,2.472001,1.0531217,-6.9791433,110.40862
1780724378787,1.7509501,7.728,5.1610503,-0.1797125,-0.0092124995,0.0578875,0.85179937,-1.7078853,2.645894,0.8991507,9.435885,2.5151563,1.0531217,-6.9791433,110.40862
1780724378788,1.3630501,7.38495,7.1730003,0.1651375,0.0226875,-0.0422125,0.45609188,-2.0340285,4.5979943,0.9069582,9.418979,2.575006,1.0531217,-6.9791433,110.40862
1780724378793,-0.651,11.028001,0.99600005,0.18425,-0.0730125,0.037675,-1.5492296,1.6054964,-1.5691493,0.89822954,9.422504,2.5651493,1.0531217,-6.9791433,110.40862
1780724378801,3.0660002,9.77295,-2.43495,0.0235125,-0.060225,0.053625,2.1441936,0.3379774,-4.9453163,0.9218065,9.434973,2.510366,1.0531217,-6.9791433,110.40862
1780724378805,0.63195,8.776951,5.3500504,-0.21367499,0.100375,-0.055,-0.2841624,-0.6472378,2.7974427,0.9161124,9.424189,2.5526078,1.0531217,-6.9791433,110.40862
1780724378821,-2.5519502,10.012951,7.2450004,-9.625E-4,-0.0166375,-0.039049998,3.073803,-0.80695343,-4.7904806,1.012197,9.449954,2.4174802,1.0531217,-6.9791433,110.40862
1780724378822,4.086,8.643001,-2.3730001,-0.0295625,0.035475,-0.088,3.073803,-0.80695343,-4.7904806,1.012197,9.449954,2.4174802,1.0531217,-6.9791433,110.40862
1780724378824,2.9340003,10.54905,-1.8769501,-0.0295625,0.035475,-0.088,1.9123571,1.0935507,-4.268636,1.0216432,9.4555,2.391686,1.0531217,-6.9791433,110.40862
1780724378825,-5.2969503,11.81595,7.4719505,0.0023375,-0.0666875,0.134475,1.9123571,1.0935507,-4.268636,1.0216432,9.4555,2.391686,1.0531217,-6.9791433,110.40862
1780724378830,0.03795,7.5409503,6.2530503,0.0023375,-0.0666875,0.134475,-0.9409465,-1.8770442,3.7008858,0.9788965,9.4179945,2.5521646,1.0531217,-6.9791433,110.40862
1780724378835,4.8229504,8.41005,-1.9369501,0.2044625,-0.1199,0.02805,3.7375436,-1.0263214,-4.375635,1.0854067,9.436372,2.438685,1.0531217,-6.9791433,110.40862
1780724378840,-0.69795,12.561001,0.84300005,-0.0169125,0.077,-0.079475,-1.7758297,3.122038,-1.5889875,1.0778797,9.438963,2.4319875,1.0531217,-6.9791433,110.40862
1780724378855,-0.16905001,8.853001,5.6020503,-0.0988625,-0.0507375,0.077,2.5279462,-2.1289344,0.549042,1.081054,9.427935,2.4730082,1.0531217,-6.9791433,110.40862
1780724378855,3.6090002,7.2990003,3.0220501,0.20019999,0.044,-0.1060125,2.5279462,-2.1289344,0.549042,1.081054,9.427935,2.4730082,1.0531217,-6.9791433,110.40862
1780724378855,-1.21095,11.884951,-1.266,0.20019999,0.044,-0.1060125,-2.2813148,2.4504356,-3.7184803,1.0703648,9.434515,2.4524803,1.0531217,-6.9791433,110.40862
1780724378860,-1.6639501,10.59,1.09395,-0.115775,0.036575,0.02695,-2.714995,1.1512213,-1.3504622,1.051045,9.438779,2.4444122,1.0531217,-6.9791433,110.40862
1780724378865,2.124,7.2010503,6.3630004,-0.216975,-0.0517,0.051425,1.0395781,-2.1976943,3.7826817,1.084422,9.398745,2.5803187,1.0531217,-6.9791433,110.40862
1780724378871,0.13905,9.1050005,5.03205,0.1736625,-0.0666875,0.02805,-0.9349148,-0.28881264,2.4295015,1.0739648,9.393813,2.6025486,1.0531217,-6.9791433,110.40862
1780724378876,0.975,10.233001,-1.7070001,0.1736625,-0.0666875,0.02805,-0.10081053,0.82574654,-4.2597647,1.0758106,9.407254,2.5527644,1.0531217,-6.9791433,110.40862
1780724378892,3.4420502,8.755051,0.70905006,-0.1254,0.003575,0.0174625,-2.163589,0.4013195,0.0708313,1.0696391,9.409731,2.5462189,1.0531217,-6.9791433,110.40862
1780724378892,-2.5830002,10.144051,8.11905,0.1054625,-0.095425,0.0812625,-2.163589,0.4013195,0.0708313,1.0696391,9.409731,2.5462189,1.0531217,-6.9791433,110.40862
1780724378892,-1.09395,9.81105,2.6170502,0.1054625,-0.095425,0.0812625,-2.163589,0.4013195,0.0708313,1.0696391,9.409731,2.5462189,1.0531217,-6.9791433,110.40862
1780724378897,6.13605,8.89395,-3.31605,0.1054625,-0.095425,0.0812625,5.03712,-0.5211048,-5.82991,1.0989304,9.415055,2.5138597,1.0531217,-6.9791433,110.40862
1780724378902,-1.23,11.2890005,3.45795,-0.0818125,0.0556875,0.0237875,-2.3123286,1.875596,0.93074465,1.0823286,9.413404,2.5272055,1.0531217,-6.9791433,110.40862
1780724378906,-3.4380002,9.567,7.4940004,-0.0818125,0.0556875,0.0237875,-4.511377,0.1551075,4.9573684,1.0733765,9.411893,2.536632,1.0531217,-6.9791433,110.40862
1780724378912,3.9949503,8.20005,0.028050002,0.1662375,-0.1518,0.0801625,2.892128,-1.2147312,-2.48513,1.1028222,9.414782,2.51318,1.0531217,-6.9791433,110.40862
1780724378924,0.89805007,11.530951,-1.52295,-0.198825,0.051425,0.0174625,-2.598916,0.49278164,2.335706,1.0858661,9.417269,2.511244,1.0531217,-6.9791433,110.40862
1780724378924,-1.5130501,9.91005,4.84695,-0.198825,0.051425,0.0174625,-2.598916,0.49278164,2.335706,1.0858661,9.417269,2.511244,1.0531217,-6.9791433,110.40862
1780724378927,3.7459502,6.7600503,5.26905,-0.054175,-0.062425,0.06215,2.6285694,-2.6432233,2.7194824,1.1173809,9.403274,2.5495677,1.0531217,-6.9791433,110.40862
1780724378931,0.42600003,10.642051,-0.16695,0.240625,0.051425,-0.0963875,-0.68421197,1.2298203,-2.6864188,1.110212,9.4122305,2.5194688,1.0531217,-6.9791433,110.40862
1780724378936,-2.8590002,12.336,-1.13505,-0.2913625,-0.030524999,0.0961125,-3.9583244,2.9192867,-3.6425216,1.0993241,9.416714,2.5074716,1.0531217,-6.9791433,110.40862
1780724378946,2.1000001,7.6800003,5.163,-0.2913625,-0.030524999,0.0961125,-0.2242232,-2.1169953,4.6475716,1.0993241,9.416714,2.5074716,1.0531217,-6.9791433,110.40862
1780724378948,0.8880001,7.2679505,7.2660003,0.2374625,-0.0325875,-0.00385,-0.2242232,-2.1169953,4.6475716,1.1122233,9.384946,2.6184285,1.0531217,-6.9791433,110.40862
1780724378952,-0.27705002,10.9470005,1.28805,0.0479875,-0.036849998,0.02695,-1.3810816,1.5560904,-1.3123995,1.1040316,9.39091,2.6004496,1.0531217,-6.9791433,110.40862
1780724378956,2.29395,10.39305,-2.02095,-0.183975,0.077,-0.0229625,1.1790587,0.9935808,-4.5855894,1.1148914,9.399469,2.5646396,1.0531217,-6.9791433,110.40862
1780724378961,0.120000005,8.724,4.24095,-0.0391875,-0.0389125,-0.0187,-0.97153914,-0.66518974,1.6290455,1.0915391,9.38919,2.6119046,1.0531217,-6.9791433,110.40862
1780724378978,-0.924,9.378,6.9240003,0.0268125,0.044,-0.0528,2.1121936,-0.4243927,-3.4394264,1.1353891,9.408722,2.5213609,1.0531217,-6.9791433,110.40862
1780724378978,3.2359502,8.973001,-0.87105006,0.0268125,0.044,-0.0528,2.1121936,-0.4243927,-3.4394264,1.1353891,9.408722,2.5213609,1.0531217,-6.9791433,110.40862
1780724378978,2.2390501,10.012951,-2.04705,0.0268125,0.044,-0.0528,2.1121936,-0.4243927,-3.4394264,1.1353891,9.408722,2.5213609,1.0531217,-6.9791433,110.40862
1780724378986,-3.8460002,11.988001,5.8510504,-0.054175,-0.0070125,0.102575,-4.9708195,2.5825891,3.3126588,1.1248194,9.405412,2.5383916,1.0531217,-6.9791433,110.40862
1780724378992,-1.5010501,8.55405,7.2709503,0.18315,-0.1390125,0.0738375,-2.6140897,-0.84713936,4.7118163,1.1130396,9.40119,2.559134,1.0531217,-6.9791433,110.40862
1780724378997,3.8410501,7.3660502,-0.768,0.0246125,0.011,-0.0433125,0.67744946,2.4396992,-2.7098935,1.1305007,9.407301,2.5288434,1.0531217,-6.9791433,110.40862
1780724378997,1.8079501,11.847,-0.18105,0.0246125,0.011,-0.0433125,0.67744946,2.4396992,-2.7098935,1.1305007,9.407301,2.5288434,1.0531217,-6.9791433,110.40862
1780724379007,-1.3810501,10.297951,5.3170505,0.0246125,0.011,-0.0433125,0.67744946,2.4396992,-2.7098935,1.1305007,9.407301,2.5288434,1.0531217,-6.9791433,110.40862
1780724379012,2.8639503,7.05,4.1290503,0.2140875,0.0163625,-0.079475,1.7338824,-2.3500595,1.5732293,1.1300678,9.40006,2.555821,1.0531217,-6.9791433,110.40862
1780724379024,1.8510001,10.329,-1.32105,-0.003025,0.0078375,0.02915,-0.7997188,-1.3954258,2.6988666,1.1136688,9.401376,2.5581834,1.0531217,-6.9791433,110.40862
1780724379024,-3.0529501,12.12705,-0.093,-0.003025,0.0078375,0.02915,-0.7997188,-1.3954258,2.6988666,1.1136688,9.401376,2.5581834,1.0531217,-6.9791433,110.40862
1780724379024,0.31395,8.00595,5.25705,-0.003025,0.0078375,0.02915,-0.7997188,-1.3954258,2.6988666,1.1136688,9.401376,2.5581834,1.0531217,-6.9791433,110.40862
1780724379027,2.2699502,7.6750503,6.1860003,0.1959375,-0.00605,-0.011275,1.1422017,-1.7057233,3.5592763,1.1277485,9.380774,2.626724,1.0531217,-6.9791433,110.40862
1780724379040,0.0139500005,10.128,0.67995006,-0.17545,0.108899996,-0.079475,1.9053749,-0.23304462,-4.1548996,1.1835753,9.419045,2.4598997,1.0531217,-6.9791433,110.40862
1780724379041,3.0889502,9.186001,-1.695,-0.17545,0.108899996,-0.079475,1.9053749,-0.23304462,-4.1548996,1.1835753,9.419045,2.4598997,1.0531217,-6.9791433,110.40862
1780724379043,0.40695003,9.856951,6.1980004,-0.17545,0.108899996,-0.079475,-0.7704563,0.44234085,3.718237,1.1774063,9.41461,2.4797635,1.0531217,-6.9791433,110.40862
1780724379050,-3.9439502,10.425,5.958,0.0438625,-0.00605,-0.039049998,-5.1070156,1.0106802,3.4703748,1.1630656,9.41432,2.4876254,1.0531217,-6.9791433,110.40862
1780724379052,5.5300503,8.104051,-2.08995,-0.0625625,0.070675,-0.1199,4.2807217,-1.3209476,-4.493903,1.2493285,9.424998,2.4039533,1.0531217,-6.9791433,110.40862
1780724379057,3.1710002,10.551001,0.45705003,-0.1115125,0.1398375,-0.093225,1.9133029,1.1240215,-1.9347374,1.2576973,9.426979,2.3917875,1.0531217,-6.9791433,110.40862
1780724379062,-5.71395,11.500051,6.9739504,0.0715,-0.1293875,0.1408,-6.957287,2.0737858,4.5718603,1.2433368,9.426265,2.4020903,1.0531217,-6.9791433,110.40862
1780724379073,2.292,7.8739505,2.5549502,-0.0924,0.118525,-0.0422125,2.4209023,0.75956726,-3.9947,1.2701479,9.430384,2.3717,1.0531217,-6.9791433,110.40862
1780724379073,3.6910503,10.189951,-1.623,-0.0924,0.118525,-0.0422125,2.4209023,0.75956726,-3.9947,1.2701479,9.430384,2.3717,1.0531217,-6.9791433,110.40862
1780724379077,-2.5810502,11.398951,3.0289502,-0.1381875,-0.10395,0.100375,-3.836634,1.9675741,0.6534445,1.2555838,9.431376,2.3755057,1.0531217,-6.9791433,110.40862
1780724379083,3.4420502,7.1839504,4.7179503,-0.1381875,-0.10395,0.100375,2.1629112,-2.236392,2.3114269,1.279139,9.420342,2.4065235,1.0531217,-6.9791433,110.40862
1780724379087,3.051,8.523001,1.29795,0.1491875,0.0567875,-0.0730125,1.7579368,-0.8984909,-1.0966048,1.2930633,9.421492,2.3945549,1.0531217,-6.9791433,110.40862
1780724379092,-5.17005,13.036951,-0.081,0.1139875,0.102575,-0.1241625,-6.448665,3.6111393,-2.4662926,1.2786151,9.425812,2.3852925,1.0531217,-6.9791433,110.40862
1780724379097,0.51495004,9.31095,2.5530002,-0.2030875,-0.077275,0.1216875,-0.7527473,-0.11361122,0.15696144,1.2676973,9.4245615,2.3960388,1.0531217,-6.9791433,110.40862
1780724379102,3.3289502,6.5400004,6.0930004,-0.2030875,-0.077275,0.1216875,-0.7527473,-0.11361122,0.15696144,1.2676973,9.4245615,2.3960388,1.0531217,-6.9791433,110.40862
1780724379108,-1.59405,9.912001,4.263,0.143825,0.0226875,-0.0581625,-2.8733454,0.5085621,1.7913349,1.2792952,9.403439,2.4716651,1.0531217,-6.9791433,110.40862
1780724379114,1.9369501,10.425,-0.67995006,-0.0807125,0.0345125,-0.0229625,0.6493372,1.0141039,-3.1186957,1.2876129,9.410896,2.4387457,1.0531217,-6.9791433,110.40862
1780724379120,2.0020502,8.853001,1.1710501,-0.1062875,0.0419375,-0.077275,0.70737565,-0.5589771,-1.2597697,1.2946745,9.411978,2.4308197,1.0531217,-6.9791433,110.40862
1780724379129,-2.63805,9.924001,6.885,-0.1062875,0.0419375,-0.077275,-3.9189618,0.51434994,4.437937,1.2809117,9.409651,2.4470634,1.0531217,-6.9791433,110.40862
1780724379131,1.8730501,9.214951,1.7719501,0.1236125,-0.1529,0.06215,-3.9189618,0.51434994,4.437937,1.2809117,9.409651,2.4470634,1.0531217,-6.9791433,110.40862
1780724379131,4.5820503,8.7619505,-3.2970002,0.2055625,-0.093225,0.0834625,-3.9189618,0.51434994,4.437937,1.2809117,9.409651,2.4470634,1.0531217,-6.9791433,110.40862
1780724379138,-3.5370002,12.630001,3.765,-0.043449998,0.0419375,-0.1390125,-4.85831,3.2070456,1.3917208,1.32131,9.4229555,2.3732793,1.0531217,-6.9791433,110.40862
1780724379145,-3.249,9.558001,8.260051,-0.01155,-0.0974875,0.143,2.8452067,-3.142159,-0.9176543,1.3168436,9.4181595,2.3947043,1.0531217,-6.9791433,110.40862
1780724379145,4.1620502,6.2760005,1.4770501,-0.01155,-0.0974875,0.143,2.8452067,-3.142159,-0.9176543,1.3168436,9.4181595,2.3947043,1.0531217,-6.9791433,110.40862
1780724379150,1.9210501,11.731951,-1.33095,0.194975,-0.125125,-0.0081124995,0.59835124,2.3093147,-3.704728,1.3226988,9.422636,2.3737779,1.0531217,-6.9791433,110.40862
1780724379155,-1.64205,11.75895,3.075,0.0160875,0.0397375,-0.088,-2.9531922,2.334116,0.70354724,1.3111422,9.424834,2.3714528,1.0531217,-6.9791433,110.40862
1780724379160,2.5170002,6.8179502,4.42605,-0.17545,-0.029424999,0.0419375,1.2009059,-2.6020508,2.038194,1.3160943,9.420001,2.3878562,1.0531217,-6.9791433,110.40862
1780724379166,0.864,9.201,1.4970001,0.1555125,0.0429,-0.1219625,-0.4503296,-0.22087193,-0.88444436,1.3143296,9.421872,2.3814445,1.0531217,-6.9791433,110.40862
1780724379171,-3.6730502,12.56595,0.49095002,0.1555125,0.0429,-0.1219625,-4.974317,3.1397324,-1.8804473,1.301267,9.426218,2.3713973,1.0531217,-6.9791433,110.40862
1780724379190,0.93405,8.647051,2.09805,0.0363,0.0578875,-0.039049998,1.156542,-1.7101569,2.7953653,1.3225082,9.407107,2.4346848,1.0531217,-6.9791433,110.40862
1780724379190,2.4790502,7.6969504,5.23005,0.104499996,-0.0752125,0.0089375,-2.7917643,0.18912506,0.6296363,1.2857641,9.408925,2.4473138,1.0531217,-6.9791433,110.40862
1780724379191,-1.506,9.59805,3.07695,0.104499996,-0.0752125,0.0089375,1.0285468,-0.5153055,-2.5466392,1.2964532,9.414356,2.4206393,1.0531217,-6.9791433,110.40862
1780724379191,2.325,8.899051,-0.126,0.104499996,-0.0752125,0.0089375,1.0285468,-0.5153055,-2.5466392,1.2964532,9.414356,2.4206393,1.0531217,-6.9791433,110.40862
1780724379196,0.73995006,9.795,4.76595,-0.0413875,0.0759,-0.1199,-0.5543009,0.38390732,2.3314795,1.294251,9.411093,2.4344707,1.0531217,-6.9791433,110.40862
1780724379201,-4.51905,10.659,4.5880504,-0.0413875,0.0759,-0.1199,-5.795443,1.2477608,2.144734,1.276393,9.41124,2.4433165,1.0531217,-6.9791433,110.40862
1780724379206,4.14795,8.688001,-1.45095,0.1139875,-0.109175,0.0908875,2.7919888,-0.7380438,-3.792193,1.3559613,9.426044,2.3412428,1.0531217,-6.9791433,110.40862
1780724379226,2.3809502,10.53705,1.506,0.1491875,-0.126225,0.0653125,1.7334275,-1.794888,-0.73199916,1.3606226,9.424938,2.3429992,1.0531217,-6.9791433,110.40862
1780724379227,-5.3380504,10.614,6.6240005,0.1491875,-0.126225,0.0653125,1.7334275,-1.794888,-0.73199916,1.3606226,9.424938,2.3429992,1.0531217,-6.9791433,110.40862
1780724379227,3.0940502,7.63005,1.6110001,0.1491875,-0.126225,0.0653125,1.7334275,-1.794888,-0.73199916,1.3606226,9.424938,2.3429992,1.0531217,-6.9791433,110.40862
1780724379231,2.3809502,10.84395,-1.7380501,-0.0072875,0.134475,-0.0963875,1.0079527,1.4140854,-4.0538483,1.3729975,9.429865,2.315798,1.0531217,-6.9791433,110.40862
1780724379240,-4.5160503,11.775001,3.4080002,-0.17655,-0.027224999,0.1057375,-5.8751664,2.343089,1.0923455,1.359116,9.431911,2.3156548,1.0531217,-6.9791433,110.40862
1780724379241,3.3820503,6.6859503,4.7730002,-0.0286,-0.077275,0.09185,2.0100446,-2.7382164,2.433542,1.3720056,9.424167,2.3394582,1.0531217,-6.9791433,110.40862
1780724379244,2.6580002,8.319,1.7359501,-0.0286,-0.077275,0.09185,1.270464,-1.1026764,-0.60438216,1.3875363,9.421677,2.3403323,1.0531217,-6.9791433,110.40862
1780724379260,-5.33505,12.55395,0.88095003,-0.2190375,-0.0347875,0.1472625,0.93609905,-2.7626243,4.009016,1.386951,9.400575,2.4240339,1.0531217,-6.9791433,110.40862
1780724379260,0.97905004,8.98305,3.183,-0.2190375,-0.0347875,0.1472625,0.93609905,-2.7626243,4.009016,1.386951,9.400575,2.4240339,1.0531217,-6.9791433,110.40862
1780724379266,2.32305,6.6379504,6.43305,0.0523875,0.1131625,-0.0092124995,-3.7933004,0.47824383,2.1620603,1.3682504,9.399707,2.4379902,1.0531217,-6.9791433,110.40862
1780724379266,-2.42505,9.877951,4.6000504,0.0523875,0.1131625,-0.0092124995,-3.7933004,0.47824383,2.1620603,1.3682504,9.399707,2.4379902,1.0531217,-6.9791433,110.40862
1780724379276,2.148,10.342951,-0.73200005,0.1651375,-0.029424999,0.084425,0.7698897,0.9356108,-3.1347396,1.3781103,9.40734,2.4027395,1.0531217,-6.9791433,110.40862
1780724379289,1.9450501,9.246,1.71405,0.0353375,0.005775,0.1120625,-3.4768224,0.073459625,4.1502886,1.3847724,9.404591,2.409662,1.0531217,-6.9791433,110.40862
1780724379289,-2.09205,9.47805,6.5599504,-0.01045,-0.046475,0.0897875,-3.4768224,0.073459625,4.1502886,1.3847724,9.404591,2.409662,1.0531217,-6.9791433,110.40862
1780724379291,3.4609501,8.37405,1.10595,-0.01045,-0.046475,0.0897875,2.05903,-1.0305214,-1.2938527,1.40192,9.404572,2.3998027,1.0531217,-6.9791433,110.40862
1780724379297,3.1590002,9.744,-2.6479502,0.2151875,0.0312125,0.1238875,1.7329576,0.33011055,-4.9964533,1.4260426,9.41389,2.3485029,1.0531217,-6.9791433,110.40862
1780724379301,-4.8370504,13.464001,3.7909503,-0.0243375,0.1557875,-0.093225,-6.254796,4.0486736,1.4431775,1.4177456,9.415327,2.3477728,1.0531217,-6.9791433,110.40862
1780724379307,-0.78000003,8.700001,7.1299505,0.176825,0.035475,0.0334125,3.2779608,-3.5583582,-0.7085339,1.4110394,9.408359,2.379534,1.0531217,-6.9791433,110.40862
1780724379307,4.689,5.8500004,1.6710001,0.176825,0.035475,0.0334125,3.2779608,-3.5583582,-0.7085339,1.4110394,9.408359,2.379534,1.0531217,-6.9791433,110.40862
1780724379313,0.522,11.181001,-0.49800003,0.176825,0.035475,0.0334125,-0.8999664,1.7700052,-2.8605337,1.4219664,9.4109955,2.3625338,1.0531217,-6.9791433,110.40862
1780724379324,-1.8220501,12.72105,4.5360003,0.176825,0.035475,0.0334125,-3.2376404,3.3089352,2.174099,1.4155902,9.412115,2.3619013,1.0531217,-6.9791433,110.40862
1780724379325,2.52705,8.002951,4.32,-0.102025,0.06215,0.1205875,1.0957695,-1.3984661,1.925173,1.4312805,9.401417,2.3948271,1.0531217,-6.9791433,110.40862
1780724379329,4.41405,7.8,-1.5799501,0.19813749,0.1111,-0.0209,2.956877,-1.604948,-3.9451137,1.4571731,9.404948,2.3651636,1.0531217,-6.9791433,110.40862
1780724379331,-0.034950003,11.578951,-0.77295005,0.19813749,0.1111,-0.0209,-1.494801,2.169404,-3.118085,1.459851,9.409547,2.345135,1.0531217,-6.9791433,110.40862
1780724379336,-3.28695,10.18305,4.82805,-0.1615625,-0.0336875,0.054725,-4.7272806,0.77383804,2.4695427,1.4403306,9.409212,2.3585074,1.0531217,-6.9791433,110.40862
1780724379337,0.081,9.43305,6.71505,-0.1615625,-0.0336875,0.054725,-1.3531146,0.02899456,4.332307,1.4341146,9.404056,2.3827431,1.0531217,-6.9791433,110.40862
1780724379343,2.9530501,8.278951,-0.41895002,0.111925,0.0323125,0.1324125,1.5027791,-1.1264267,-2.7866507,1.450271,9.405377,2.3677006,1.0531217,-6.9791433,110.40862
1780724379347,3.9439502,8.51295,-1.9780501,-0.0573375,0.0589875,-0.014575,2.4383702,-0.9040594,-4.263563,1.50558,9.417009,2.2855132,1.0531217,-6.9791433,110.40862
1780724379360,0.097950004,10.44795,5.1109505,-0.0573375,0.0589875,-0.014575,-5.2209725,1.2123318,4.2839947,1.4859724,9.413669,2.3119557,1.0531217,-6.9791433,110.40862
1780724379360,-3.7350001,10.626,6.59595,-0.149875,0.0972125,-0.086899996,-5.2209725,1.2123318,4.2839947,1.4859724,9.413669,2.3119557,1.0531217,-6.9791433,110.40862
1780724379362,3.0250502,7.4740505,0.51495004,0.0768625,-0.055,0.100375,1.5321476,-1.9399452,-1.7911971,1.4929025,9.413996,2.306147,1.0531217,-6.9791433,110.40862
1780724379367,3.42705,9.366,-0.25605002,-0.0583,0.12595,-0.1060125,1.8843186,-0.054561615,-2.5017996,1.5427315,9.420562,2.2457495,1.0531217,-6.9791433,110.40862
1780724379372,-4.56405,13.071001,5.4630003,0.0033,0.0345125,0.052525,-6.098169,3.6498108,3.2139897,1.5341187,9.42119,2.2490106,1.0531217,-6.9791433,110.40862
1780724379378,0.19395001,9.162001,2.8519502,0.0097624995,-0.1518,0.19305,-1.3165864,-0.2590742,0.5865514,1.5105364,9.421075,2.2653987,1.0531217,-6.9791433,110.40862
1780724379384,6.3510003,8.298,-0.795,-0.0050875,0.02805,-0.011275,-1.3165864,-0.2590742,0.5865514,1.5692124,9.419484,2.2318869,1.0531217,-6.9791433,110.40862
1780724379388,0.60300004,10.630051,3.5659502,-0.083875,0.0801625,-0.012375,-0.9605001,1.2109299,1.3285315,1.5635002,9.419121,2.2374187,1.0531217,-6.9791433,110.40862
1780724379393,0.70905006,8.158951,4.9500003,-0.083875,0.0801625,-0.012375,-0.83684087,-1.2498188,2.657474,1.5458909,9.40877,2.2925262,1.0531217,-6.9791433,110.40862
1780724379397,2.706,8.884951,0.69195,-0.0072875,-0.0517,0.0471625,1.1442038,-0.5249615,-1.5850556,1.5617963,9.409912,2.2770057,1.0531217,-6.9791433,110.40862
1780724379410,-4.083,13.333951,-1.2780001,-0.07755,0.067375,0.004675,-5.635785,3.919489,-3.5423284,1.5527848,9.414462,2.2643282,1.0531217,-6.9791433,110.40862
1780724379415,-2.3100002,10.290001,2.4760501,-0.20735,-0.0389125,0.1153625,-3.843416,0.8756628,0.19805646,1.5334158,9.414338,2.2779937,1.0531217,-6.9791433,110.40862
1780724379418,4.97205,5.4480004,7.4820004,-0.0796125,0.002475,0.0664125,-0.2814299,-0.8280544,3.395984,1.55538,9.389005,2.3659666,1.0531217,-6.9791433,110.40862
1780724379418,1.2739501,8.56095,5.7619505,-0.0796125,0.002475,0.0664125,-0.2814299,-0.8280544,3.395984,1.55538,9.389005,2.3659666,1.0531217,-6.9791433,110.40862
1780724379423,1.4680501,10.65705,-2.6430001,0.064075,-0.0496375,0.0716375,-0.097058415,1.2600002,-4.970293,1.5651085,9.39705,2.3272927,1.0531217,-6.9791433,110.40862
1780724379428,4.05705,9.535951,0.06705,-0.2222,0.1419,-0.109175,2.4650435,0.13667774,-2.2328615,1.5920068,9.399273,2.2999115,1.0531217,-6.9791433,110.40862
1780724379439,-4.53,10.077001,8.20005,0.1970375,-0.16775,0.166375,-2.571371,-0.7604227,0.15751839,1.5593212,9.398473,2.3254318,1.0531217,-6.9791433,110.40862
1780724379439,-1.01205,8.63805,2.4829502,0.1970375,-0.16775,0.166375,-2.571371,-0.7604227,0.15751839,1.5593212,9.398473,2.3254318,1.0531217,-6.9791433,110.40862
1780724379443,5.99205,10.08705,-3.6160502,0.126775,-0.1326875,0.0578875,4.4128594,0.6856041,-5.9159117,1.5791909,9.401446,2.2998617,1.0531217,-6.9791433,110.40862
1780724379450,-3.01395,12.41205,3.35295,-0.017875,0.0334125,-0.0826375,-4.585907,3.0089874,1.0547423,1.5719568,9.403063,2.2982078,1.0531217,-6.9791433,110.40862
1780724379453,-1.182,7.6440005,6.09495,-0.198825,0.1142625,-0.0081124995,-2.6666296,-1.7368093,3.65227,1.4846295,9.38081,2.4426801,1.0531217,-6.9791433,110.40862
1780724379458,6.459,7.6320004,0.87405,-0.0061875,-0.191125,0.1568875,4.8800063,-1.7404532,-1.5413748,1.5789938,9.372454,2.4154248,1.0531217,-6.9791433,110.40862
1780724379464,-2.15505,13.512001,1.1179501,0.15345,0.004675,-0.076175,-3.730124,4.1365976,-1.2885753,1.5750741,9.375403,2.4065254,1.0531217,-6.9791433,110.40862
1780724379472,0.048,9.850051,2.124,-0.180675,-0.1560625,0.17379999,-1.4991126,0.46868992,-0.27744293,1.5750741,9.375403,2.4065254,1.0531217,-6.9791433,110.40862
1780724379479,7.7190003,5.991,2.5770001,-0.180675,-0.1560625,0.17379999,6.0718703,-3.3707962,0.16575146,1.6331741,9.363624,2.4136467,1.0531217,-6.9791433,110.40862
1780724379480,-3.76605,11.038051,3.07995,-0.180675,-0.1560625,0.17379999,6.0718703,-3.3707962,0.16575146,1.6331741,9.363624,2.4136467,1.0531217,-6.9791433,110.40862
1780724379484,-4.071,11.425951,2.565,0.0757625,0.0994125,-0.1199,-5.6803827,2.0579824,0.1522336,1.6093825,9.367969,2.4127665,1.0531217,-6.9791433,110.40862
1780724379488,4.3180504,8.03895,3.93495,-0.1126125,-0.1464375,0.13653749,2.650137,-1.3099327,1.4881432,1.6679133,9.348883,2.446807,1.0531217,-6.9791433,110.40862
1780724379493,-0.69600004,8.973001,5.6730003,-0.082775,0.003575,0.0259875,-2.3489196,-0.3701353,3.1942754,1.6529195,9.343136,2.478725,1.0531217,-6.9791433,110.40862
1780724379505,1.6519501,8.809951,-0.057000004,0.1247125,0.0121,0.021724999,-0.0027828217,-0.5377674,-2.5171628,1.654733,9.347718,2.4601629,1.0531217,-6.9791433,110.40862
1780724379511,6.6649504,7.998,0.19605,-0.0966625,0.182325,-0.1060125,4.954456,-1.3473997,-2.234611,1.7104946,9.3454,2.430661,1.0531217,-6.9791433,110.40862
1780724379518,-4.8370504,10.906051,7.5010505,-0.0966625,0.182325,-0.1060125,-6.538101,1.5614204,5.06082,1.7010505,9.34463,2.4402304,1.0531217,-6.9791433,110.40862
1780724379521,-2.6479502,10.13895,2.4109502,0.0097624995,0.0462,-0.0963875,-4.3129373,0.7890854,-0.03409052,1.6649872,9.349865,2.4450407,1.0531217,-6.9791433,110.40862
1780724379524,7.9939504,8.3220005,-3.1609502,0.1662375,-0.13695,0.247225,6.300252,-1.0292673,-5.580779,1.6936986,9.351268,2.419829,1.0531217,-6.9791433,110.40862
1780724379528,-2.526,11.986051,3.3690002,-0.0295625,0.0642125,-0.045375,-4.2143703,2.633853,0.9490378,1.6883702,9.352198,2.4199624,1.0531217,-6.9791433,110.40862
1780724379540,-2.25,8.940001,6.2770505,-0.1637625,0.1461625,-0.0677875,-3.9111586,-0.40925217,3.8270674,1.6611587,9.349253,2.4499831,1.0531217,-6.9791433,110.40862
1780724379543,6.6130505,6.5800505,1.30005,-0.0083875,-0.0911625,0.2101,4.882514,-2.7594242,-1.1391804,1.7305367,9.339475,2.4392304,1.0531217,-6.9791433,110.40862
1780724379549,-2.80605,12.87705,2.22,-0.087037496,-0.1071125,0.2281125,-4.17723,1.5722952,0.7700288,1.71318,9.342755,2.4389212,1.0531217,-6.9791433,110.40862
1780724379550,-2.46405,10.9150505,3.20895,-0.087037496,-0.1071125,0.2281125,-4.17723,1.5722952,0.7700288,1.71318,9.342755,2.4389212,1.0531217,-6.9791433,110.40862
1780724379550,7.353,6.2239504,1.48695,-0.087037496,-0.1071125,0.2281125,-4.17723,1.5722952,0.7700288,1.71318,9.342755,2.4389212,1.0531217,-6.9791433,110.40862
1780724379554,-1.3789501,10.386001,1.281,0.0257125,0.069575,-0.022,-3.2201266,1.059618,-1.1271223,1.8411765,9.326383,2.4081223,1.0531217,-6.9791433,110.40862
1780724379559,-4.51905,12.084001,1.9920001,-0.11055,-0.027224999,0.150425,-6.3423743,2.7531605,-0.41243863,1.8233243,9.33084,2.4044387,1.0531217,-6.9791433,110.40862
1780724379565,3.216,7.8640504,3.6829503,-0.11055,-0.027224999,0.150425,1.3760935,-1.4593492,1.2623432,1.8399066,9.3234,2.420607,1.0531217,-6.9791433,110.40862
1780724379573,-0.13305001,8.50605,5.74305,-0.14025,0.019524999,0.0738375,-1.9535265,-0.8076372,3.2709072,1.8204765,9.313687,2.472143,1.0531217,-6.9791433,110.40862
1780724379575,0.80895007,9.555,0.53895,0.1310375,0.1057375,0.0471625,-0.9993067,0.23005581,-1.8994927,1.8082567,9.3249445,2.4384427,1.0531217,-6.9791433,110.40862
1780724379580,6.6889505,8.53695,-1.743,0.109725,-0.0858,0.149325,4.8454146,-0.78946877,-4.1491766,1.8435359,9.326419,2.4061763,1.0531217,-6.9791433,110.40862
1780724379586,-1.7500501,10.269,5.616,-0.122237496,0.1238875,-0.0400125,-3.5823812,0.9440212,3.1957252,1.8323312,9.324979,2.420275,1.0531217,-6.9791433,110.40862
1780724379590,-3.5149503,9.3490505,4.09005,-0.0710875,0.17173749,-0.088,-5.306262,0.021817207,1.6478534,1.7913117,9.327233,2.4421968,1.0531217,-6.9791433,110.40862
1780724379599,4.26105,8.21595,-1.2900001,0.0075625,0.0801625,0.015262499,2.4340796,-1.1153412,-3.689911,1.8269706,9.331291,2.3999107,1.0531217,-6.9791433,110.40862
1780724379606,-3.28005,12.205951,3.4699502,0.0075625,0.0801625,0.015262499,-5.1022234,2.873598,1.0705197,1.8221734,9.332353,2.3994305,1.0531217,-6.9791433,110.40862
1780724379610,-3.9720001,11.239051,6.5020504,-0.00935,-0.03575,0.3196875,-5.7822924,1.9073229,4.091221,1.8102921,9.331728,2.4108293,1.0531217,-6.9791433,110.40862
1780724379618,8.48295,5.74695,0.97695005,0.028875,0.015262499,0.149325,6.5832796,-3.5705147,-1.4202374,1.8996705,9.317465,2.3971875,1.0531217,-6.9791433,110.40862
1780724379622,3.9400501,9.529051,2.02305,0.0193875,0.2431,-0.10285,2.0125802,0.21544456,-0.36692858,1.92747,9.313606,2.3899786,1.0531217,-6.9791433,110.40862
1780724379623,-3.5680501,11.710951,5.00505,0.0193875,0.2431,-0.10285,-5.4810953,2.395607,2.6102605,1.9130452,9.315344,2.3947897,1.0531217,-6.9791433,110.40862
1780724379626,2.709,8.118,2.5240502,-0.0328625,0.104637496,0.1142625,0.78986335,-1.1948996,0.12463546,1.9191368,9.3129,2.3994148,1.0531217,-6.9791433,110.40862
1780724379630,-0.27705002,10.762051,0.55005,0.093775,0.0749375,0.0738375,-2.1871934,1.4433355,-1.8339169,1.9101434,9.318715,2.383967,1.0531217,-6.9791433,110.40862
1780724379642,-3.90105,11.866051,-0.59805006,-0.1243,-0.0103124995,0.2047375,-5.796463,2.5417929,-2.9720802,1.895413,9.324258,2.37403,1.0531217,-6.9791433,110.40862
1780724379651,5.1709504,7.7179503,3.6420002,-0.1243,-0.0103124995,0.2047375,3.2089126,-1.5857587,1.2416241,1.9734018,9.284034,2.466331,1.0531217,-6.9791433,110.40862
1780724379651,2.4499502,7.7850003,5.9940004,0.0991375,0.086625,-0.045375,0.47654843,-1.4990335,3.5276694,1.9734018,9.284034,2.466331,1.0531217,-6.9791433,110.40862
1780724379654,-0.13095,10.767,2.2150502,0.0991375,0.086625,-0.045375,-2.0900123,1.4792271,-0.24862862,1.9590622,9.287773,2.4636788,1.0531217,-6.9791433,110.40862
1780724379661,5.2710004,9.03495,-2.07795,-0.10945,0.0226875,-0.0240625,3.2818465,-0.25816917,-4.496954,1.9891537,9.293119,2.4190037,1.0531217,-6.9791433,110.40862
1780724379664,0.21105,9.4140005,4.68405,-0.10945,0.0226875,-0.0240625,-1.762566,0.12346935,2.242475,1.973616,9.290531,2.441575,1.0531217,-6.9791433,110.40862
1780724379672,-3.558,10.24995,7.1629505,-0.1243,0.1461625,-0.1145375,-5.5150175,0.96029663,4.7047386,1.9570173,9.289654,2.4582121,1.0531217,-6.9791433,110.40862
1780724379676,4.95795,8.475,-1.8510001,0.1588125,-0.117699996,0.0792,2.9350932,-0.82353115,-4.220762,2.022857,9.298532,2.3697617,1.0531217,-6.9791433,110.40862
1780724379685,3.1300502,10.767,-0.33195,-0.117975,0.09405,-0.16775,1.0967107,1.4649658,-2.6788816,2.0333395,9.302034,2.3469317,1.0531217,-6.9791433,110.40862
1780724379688,-3.38295,10.936951,6.5209503,-0.11055,-0.0496375,0.0493625,-5.3999395,1.6356888,4.1569138,2.0169895,9.301262,2.3640363,1.0531217,-6.9791433,110.40862
1780724379690,3.66405,7.07595,3.5299501,-0.11055,-0.0496375,0.0493625,1.6388674,-2.2217717,1.1589963,2.0251827,9.297722,2.3709538,1.0531217,-6.9791433,110.40862
1780724379702,3.21195,10.22805,-1.3810501,0.0757625,-0.0325875,-0.1837,1.1738236,0.92461395,-3.7182536,2.0381265,9.303436,2.3372035,1.0531217,-6.9791433,110.40862
1780724379704,-2.70105,13.132951,1.8559501,0.0757625,-0.0325875,-0.1837,-4.726329,3.8249683,-0.47430587,2.0252786,9.307982,2.330256,1.0531217,-6.9791433,110.40862
1780724379711,2.6440501,8.401051,4.4110503,-0.1392875,-0.0889625,-0.0188375,0.608217,-0.8875313,2.0135405,2.0358331,9.288582,2.3975098,1.0531217,-6.9791433,110.40862
1780724379723,4.3759503,7.3710003,1.746,-0.0625625,-0.1975875,-0.0017875,2.3244476,-1.913868,-0.65252876,2.0515027,9.284868,2.3985288,1.0531217,-6.9791433,110.40862
1780724379725,-1.7590501,11.839951,0.26505002,0.0353375,-0.1071125,-0.142175,-3.7954879,2.548686,-2.1215258,2.0364377,9.291265,2.3865757,1.0531217,-6.9791433,110.40862
1780724379731,-0.64095,10.695001,1.6669501,0.0353375,-0.1071125,-0.142175,0.07301235,-1.1915369,2.9870787,2.0109377,9.280587,2.4489217,1.0531217,-6.9791433,110.40862
1780724379731,2.08395,8.08905,5.4360003,-0.1882375,-0.1529,-0.0177375,0.07301235,-1.1915369,2.9870787,2.0109377,9.280587,2.4489217,1.0531217,-6.9791433,110.40862
1780724379735,-0.37305,9.222,3.9870002,-0.0306625,-0.112475,-0.10065,-2.344038,-0.058541298,1.5056419,1.9709879,9.280541,2.4813583,1.0531217,-6.9791433,110.40862
1780724379743,2.70405,8.691,-0.88305,-0.087037496,-0.055,-0.2380125,0.010681748,0.0023107529,0.32003355,1.9772683,9.286739,2.4530165,1.0531217,-6.9791433,110.40862
1780724379744,1.9879501,9.28905,2.77305,-0.087037496,-0.055,-0.2380125,0.010681748,0.0023107529,0.32003355,1.9772683,9.286739,2.4530165,1.0531217,-6.9791433,110.40862
1780724379749,-4.39395,11.15505,6.6510005,0.13859999,-0.2932875,0.0226875,-6.355261,1.8672476,4.1892214,1.9613109,9.287803,2.461779,1.0531217,-6.9791433,110.40862
1780724379761,1.593,9.258,0.80205005,0.13859999,-0.2932875,0.0226875,3.9869847,-0.6325979,-5.025631,1.9860152,9.299599,2.3965807,1.0531217,-6.9791433,110.40862
1780724379761,5.973,8.667001,-2.62905,-0.135025,-0.0559625,-0.256025,3.9869847,-0.6325979,-5.025631,1.9860152,9.299599,2.3965807,1.0531217,-6.9791433,110.40862
1780724379763,-1.79295,11.232,4.44495,-0.135025,-0.0559625,-0.256025,-3.759431,1.9306612,2.0390356,1.966481,9.301339,2.4059145,1.0531217,-6.9791433,110.40862
1780724379768,-1.58895,9.318001,5.8699503,-0.053075,-0.177375,-0.0922625,-3.5322762,0.017442703,3.4423003,1.9433261,9.300558,2.42765,1.0531217,-6.9791433,110.40862
1780724379776,2.9239502,8.161051,-0.46605003,0.1343375,-0.2391125,-0.0858,0.974169,-1.1431017,-2.874682,1.9497812,9.3041525,2.408632,1.0531217,-6.9791433,110.40862
1780724379795,-1.3879501,11.208,0.54300004,0.1725625,-0.06765,-0.13365,2.3624358,-1.8702617,2.1621158,1.9775141,9.282212,2.4698846,1.0531217,-6.9791433,110.40862
1780724379796,-1.67595,10.410001,5.7670503,0.1725625,-0.06765,-0.13365,2.3624358,-1.8702617,2.1621158,1.9775141,9.282212,2.4698846,1.0531217,-6.9791433,110.40862
1780724379796,4.33995,7.4119506,4.6320004,0.1725625,-0.06765,-0.13365,2.3624358,-1.8702617,2.1621158,1.9775141,9.282212,2.4698846,1.0531217,-6.9791433,110.40862
1780724379801,2.0070002,8.772,-0.34905002,0.1725625,-0.06765,-0.13365,0.026453018,-0.5142422,-2.8013022,1.9805472,9.2862425,2.4522521,1.0531217,-6.9791433,110.40862
1780724379805,-1.7020501,10.69005,2.29905,-0.0924,-0.0177375,-0.1219625,-3.6580777,1.3986893,-0.15349412,1.9560277,9.291361,2.4525442,1.0531217,-6.9791433,110.40862
1780724379811,-1.5079501,8.7619505,7.5100503,-0.1595,-0.03795,-0.0400125,-3.44902,-0.525548,5.0311375,1.9410698,9.287498,2.4789126,1.0531217,-6.9791433,110.40862
1780724379828,-0.837,8.764951,5.973,0.0726,-0.061325,0.0099,0.8214598,0.78640175,-2.3589072,1.9325404,9.290599,2.4739573,1.0531217,-6.9791433,110.40862
1780724379828,2.7540002,10.077001,0.11505,0.0842875,-0.076175,0.051425,0.8214598,0.78640175,-2.3589072,1.9325404,9.290599,2.4739573,1.0531217,-6.9791433,110.40862
1780724379829,3.2710502,9.541051,-0.62895006,-0.117975,0.0834625,-0.03795,1.313626,0.24200821,-3.05107,1.9574242,9.299043,2.4221199,1.0531217,-6.9791433,110.40862
1780724379833,0.273,7.9410005,3.3649502,-0.117975,0.0834625,-0.03795,-1.6757153,-1.3570905,0.93216825,1.9487153,9.298091,2.432782,1.0531217,-6.9791433,110.40862
1780724379839,-0.75405,9.75405,6.9240003,-0.049775,0.0174625,-0.0474375,-2.691872,0.45827675,4.4737277,1.9378219,9.2957735,2.4502726,1.0531217,-6.9791433,110.40862
1780724379844,0.24900001,9.771001,1.554,0.18425,0.003575,0.0429,-1.6535516,0.46138477,-0.87123096,1.9025515,9.309616,2.425231,1.0531217,-6.9791433,110.40862
1780724379848,3.7860003,8.358001,-4.18095,0.114125,-0.0198,0.058849998,1.8395748,-0.97001934,-6.498245,1.9464254,9.32802,2.3172946,1.0531217,-6.9791433,110.40862
1780724379862,0.57195,11.281951,1.6980001,-0.1584,0.0812625,-0.1167375,-0.73475635,-2.8174105,1.2352118,1.9298064,9.326361,2.3377883,1.0531217,-6.9791433,110.40862
1780724379863,-5.256,10.40295,8.740951,0.0353375,-0.1315875,0.134475,-0.73475635,-2.8174105,1.2352118,1.9298064,9.326361,2.3377883,1.0531217,-6.9791433,110.40862
1780724379863,1.19505,6.50895,3.5730002,0.0353375,-0.1315875,0.134475,-0.73475635,-2.8174105,1.2352118,1.9298064,9.326361,2.3377883,1.0531217,-6.9791433,110.40862
1780724379866,5.3050504,9.150001,1.08,0.08635,0.002475,0.044,3.3456204,-0.17441654,-1.2408296,1.95943,9.324417,2.3208296,1.0531217,-6.9791433,110.40862
1780724379876,-2.32695,12.178051,3.9250503,-0.0061875,-0.0422125,0.117425,-4.274003,2.8513393,1.6030204,1.9470527,9.326712,2.3220298,1.0531217,-6.9791433,110.40862
1780724379879,2.08395,8.97795,1.8919501,-0.0061875,-0.0422125,0.117425,0.13118601,-0.34851265,-0.42628217,1.952764,9.326463,2.3182323,1.0531217,-6.9791433,110.40862
1780724379894,4.29705,8.166,-0.83295006,0.047025,0.069575,-0.0262625,2.7353458,0.5845041,2.024217,1.9566547,9.327497,2.3107831,1.0531217,-6.9791433,110.40862
1780724379895,-6.2310004,11.61495,4.6600504,0.047025,0.069575,-0.0262625,2.7353458,0.5845041,2.024217,1.9566547,9.327497,2.3107831,1.0531217,-6.9791433,110.40862
1780724379895,-2.7970502,9.736951,6.945,0.1076625,-0.0400125,0.150425,2.7353458,0.5845041,2.024217,1.9566547,9.327497,2.3107831,1.0531217,-6.9791433,110.40862
1780724379895,4.6920004,9.912001,4.335,0.1076625,-0.0400125,0.150425,2.7353458,0.5845041,2.024217,1.9566547,9.327497,2.3107831,1.0531217,-6.9791433,110.40862
1780724379900,0.49095002,11.500051,-1.9470001,-0.0488125,-0.029424999,0.15895,-1.4741025,2.1685848,-4.234518,1.9650525,9.331466,2.2875178,1.0531217,-6.9791433,110.40862
1780724379904,6.4399505,6.35505,-4.914,-0.33935,0.143,-0.1859,4.406784,-2.982256,-7.1165743,2.0331664,9.337306,2.2025745,1.0531217,-6.9791433,110.40862
1780724379910,2.778,8.073,7.7359505,-0.33935,0.143,-0.1859,0.74812675,-1.2558956,5.4950304,2.0298734,9.328896,2.2409198,1.0531217,-6.9791433,110.40862
1780724379916,-9.658051,10.42905,9.747001,0.1076625,0.22495,-0.13695,-11.671152,1.0977488,7.500973,2.0131018,9.331302,2.2460275,1.0531217,-6.9791433,110.40862
1780724379926,2.6940002,9.32295,-1.779,-0.2701875,0.281325,-0.0581625,4.0616665,1.2493334,-9.645561,2.0602834,9.354617,2.1016111,1.0531217,-6.9791433,110.40862
1780724379926,6.12195,10.6039505,-7.5439506,-0.2701875,0.281325,-0.0581625,4.0616665,1.2493334,-9.645561,2.0602834,9.354617,2.1016111,1.0531217,-6.9791433,110.40862
1780724379931,-4.3890004,9.0400505,4.1140504,-0.2701875,0.281325,-0.0581625,-6.405961,-0.31725883,1.9826126,2.0169604,9.357309,2.1314378,1.0531217,-6.9791433,110.40862
1780724379943,0.43800002,8.65695,13.740001,-0.40094998,-0.224125,0.0429,-1.57932,-0.6948767,11.584969,2.01732,9.351827,2.155032,1.0531217,-6.9791433,110.40862
1780724379945,5.3100004,7.7440505,5.03205,0.340725,0.0067375,0.1057375,3.2648633,-1.598393,2.8625922,2.0451372,9.342443,2.169458,1.0531217,-6.9791433,110.40862
1780724379953,3.62595,9.49995,-6.6600003,0.34814999,-0.0017875,-0.0209,1.5740063,0.1492281,-8.786949,2.0519438,9.350722,2.1269484,1.0531217,-6.9791433,110.40862
1780724379961,3.693,13.102051,-1.63995,-0.1626625,0.011,-0.1293875,-8.617826,3.764614,10.276553,2.0467758,9.352436,2.1243973,1.0531217,-6.9791433,110.40862
1780724379961,-6.57105,13.11705,12.40095,-0.1626625,0.011,-0.1293875,-8.617826,3.764614,10.276553,2.0467758,9.352436,2.1243973,1.0531217,-6.9791433,110.40862
1780724379964,-6.8970003,9.36795,2.7280502,-0.034925,0.1387375,-0.144375,-8.904651,0.011931419,0.5822058,2.0076501,9.356019,2.1458445,1.0531217,-6.9791433,110.40862
1780724379967,10.92105,7.9530005,-7.2559505,0.3056625,-0.3581875,0.2685375,8.896973,-1.4043927,-9.380264,2.0240772,9.357393,2.1243136,1.0531217,-6.9791433,110.40862
1780724379973,1.605,10.458,2.4760501,-0.28393748,0.1535875,-0.1986875,-0.42476654,1.1014462,0.353472,2.0297666,9.356554,2.1225781,1.0531217,-6.9791433,110.40862
1780724379978,-2.943,8.820001,12.54705,-0.28393748,0.1535875,-0.1986875,-4.9585896,-0.53515625,10.404893,2.0155897,9.355157,2.1421576,1.0531217,-6.9791433,110.40862
1780724379994,7.25895,5.4240003,-2.28705,-0.0562375,-0.13475,0.108899996,-3.7562306,1.7061625,-7.5085773,2.0762305,9.359788,2.0625274,1.0531217,-6.9791433,110.40862
1780724379994,-1.6800001,11.06595,-5.44605,-0.2190375,0.32285,-0.2816,-3.7562306,1.7061625,-7.5085773,2.0762305,9.359788,2.0625274,1.0531217,-6.9791433,110.40862
1780724379996,-12.906,14.628,10.497001,-0.2190375,0.32285,-0.2816,-14.9657345,5.2657957,8.4289055,2.0597339,9.362205,2.068095,1.0531217,-6.9791433,110.40862
1780724379998,2.091,4.4610004,9.40695,-0.3883,-0.24007499,0.069575,0.03350997,-4.882147,7.252248,2.05749,9.343147,2.1547024,1.0531217,-6.9791433,110.40862
1780724380004,12.607051,4.4539504,0.36795002,0.1353,-0.18053749,0.4175875,10.51313,-4.8822083,-1.7819433,2.0939202,9.336159,2.1498933,1.0531217,-6.9791433,110.40862
1780724380008,-0.92595005,16.050001,-3.4429502,0.31625,-0.109175,-0.2028125,-3.0184157,6.7091913,-5.5739765,2.0924656,9.34081,2.1310265,1.0531217,-6.9791433,110.40862
1780724380013,-0.34905002,9.8230505,-2.1790502,0.2332,0.1313125,-0.1060125,-2.4004478,0.45447826,-4.2264934,2.0513978,9.368572,2.0474432,1.0531217,-6.9791433,110.40862
1780724380018,2.328,9.033,3.93705,-0.3180375,-0.028324999,0.0334125,0.27302337,-0.32621765,1.8507843,2.0549767,9.359218,2.0862658,1.0531217,-6.9791433,110.40862
1780724380029,-5.6779504,12.918,8.95905,0.2024,-0.4560875,0.133375,-0.7202078,-1.5279989,-4.481058,2.042158,9.362949,2.082108,1.0531217,-6.9791433,110.40862
1780724380034,1.3219501,7.8349504,-2.39895,-0.2253625,0.2398,-0.1890625,9.785088,-3.1666913,-8.296401,2.0608628,9.363642,2.0604503,1.0531217,-6.9791433,110.40862
1780724380034,11.84595,6.1969504,-6.2359505,-0.2253625,0.2398,-0.1890625,9.785088,-3.1666913,-8.296401,2.0608628,9.363642,2.0604503,1.0531217,-6.9791433,110.40862
1780724380038,-7.14795,14.659051,8.559,-0.2253625,0.2398,-0.1890625,-9.202734,5.296238,6.4887295,2.0547836,9.362813,2.0702703,1.0531217,-6.9791433,110.40862
1780724380043,-8.226001,12.05805,8.290951,-0.1392875,-0.2954875,0.3282125,-10.256617,2.6916265,6.213186,2.0306163,9.366424,2.077765,1.0531217,-6.9791433,110.40862
1780724380046,12.088051,5.352,-0.54495,-0.1392875,-0.2954875,0.3282125,10.029644,-4.008808,-2.6206768,2.058407,9.360808,2.0757267,1.0531217,-6.9791433,110.40862
1780724380054,2.979,7.29195,-1.626,-0.0636625,0.446325,-0.1964875,0.9086292,-2.0703058,-3.6832142,2.070371,9.362256,2.0572143,1.0531217,-6.9791433,110.40862
1780724380058,-6.7650003,12.420001,8.14005,-0.0636625,0.446325,-0.1964875,-8.818901,3.0551672,6.0780697,2.0539012,9.364834,2.0619805,1.0531217,-6.9791433,110.40862
1780724380064,0.19095,14.094001,7.9129505,-0.0818125,-0.370975,-0.1293875,-1.8552123,4.7288322,5.8448033,2.0461624,9.365169,2.0681472,1.0531217,-6.9791433,110.40862
1780724380065,1.9849501,6.3960004,-7.05705,0.3014,0.143,0.17173749,-0.10722518,-3.0090985,-8.883881,2.0921752,9.405099,1.8268299,1.0531217,-6.9791433,110.40862
1780724380076,7.2760506,8.31705,-9.27495,-0.2094125,-0.10065,-0.0507375,5.1724873,-1.0913172,-11.071623,2.103563,9.408367,1.7966725,1.0531217,-6.9791433,110.40862
1780724380076,3.2670002,9.86205,2.4739501,-0.2094125,-0.10065,-0.0507375,5.1724873,-1.0913172,-11.071623,2.103563,9.408367,1.7966725,1.0531217,-6.9791433,110.40862
1780724380086,-8.19495,11.32995,13.024051,-0.296725,0.2941125,-0.2209625,-10.292927,1.925314,11.201499,2.0979772,9.404636,1.8225516,1.0531217,-6.9791433,110.40862
1780724380091,4.32,7.1530504,-6.6240005,0.15455,-0.2124375,-0.07095,2.20006,-2.2597122,-8.377889,2.1199403,9.412763,1.7538878,1.0531217,-6.9791433,110.40862
1780724380099,9.58695,12.015,-6.12795,-0.1265,0.1632125,-0.4125,7.452377,2.6007757,-7.856061,2.1345735,9.414225,1.7281109,1.0531217,-6.9791433,110.40862
1780724380101,-12.37695,17.236052,9.9529505,-0.1265,0.1632125,-0.4125,-14.498334,7.8195896,8.220793,2.121384,9.416462,1.7321582,1.0531217,-6.9791433,110.40862
1780724380110,0.60105,4.51095,7.1059504,-0.43395,-0.062425,-0.060225,-1.5037893,-4.900772,5.328449,2.1048393,9.411722,1.7775016,1.0531217,-6.9791433,110.40862
1780724380118,17.67795,-1.281,-6.70095,-0.345675,0.247225,-0.3018125,-1.5037893,-4.900772,5.328449,2.1266866,9.410163,1.7596713,1.0531217,-6.9791433,110.40862
1780724380120,-4.5019503,14.14395,2.9569502,-0.345675,0.247225,-0.3018125,-1.5037893,-4.900772,5.328449,2.1266866,9.410163,1.7596713,1.0531217,-6.9791433,110.40862
1780724380120,-11.365951,15.880051,8.47305,-0.345675,0.247225,-0.3018125,-1.5037893,-4.900772,5.328449,2.1266866,9.410163,1.7596713,1.0531217,-6.9791433,110.40862
1780724380121,7.5150003,8.401051,-11.590951,-0.345675,0.247225,-0.3018125,-1.5037893,-4.900772,5.328449,2.1266866,9.410163,1.7596713,1.0531217,-6.9791433,110.40862
1780724380121,2.1000001,15.949951,-4.5810003,-0.345675,0.247225,-0.3018125,-1.5037893,-4.900772,5.328449,2.1266866,9.410163,1.7596713,1.0531217,-6.9791433,110.40862
1780724380122,-12.3810005,14.464951,14.71695,-0.5394125,-0.2869625,0.22605,-14.474531,5.044568,12.9722595,2.093531,9.4203825,1.7446909,1.0531217,-6.9791433,110.40862
1780724380130,10.396951,-3.08505,7.122,0.179025,-0.4093375,0.380325,8.282898,-12.49394,5.340429,2.1140525,9.40889,1.7815713,1.0531217,-6.9791433,110.40862
1780724380132,18.05805,0.84900004,-2.18805,0.179025,-0.4093375,0.380325,15.914954,-8.554574,-3.96297,2.143096,9.403574,1.77492,1.0531217,-6.9791433,110.40862
1780724380143,-9.61305,19.07295,-0.64605004,0.4907375,0.346225,-0.6210875,-11.725585,9.65714,-2.39251,2.1125343,9.415811,1.74646,1.0531217,-6.9791433,110.40862
1780724380148,-7.3969502,15.478051,-5.4030004,-0.24887499,-0.0070125,-0.19965,3.3315482,-0.554348,-7.9400496,2.112402,9.422348,1.7109994,1.0531217,-6.9791433,110.40862
1780724380149,5.44395,8.868,-6.22905,-0.24887499,-0.0070125,-0.19965,3.3315482,-0.554348,-7.9400496,2.112402,9.422348,1.7109994,1.0531217,-6.9791433,110.40862
1780724380149,-10.663951,16.69905,9.02595,-0.24887499,-0.0070125,-0.19965,3.3315482,-0.554348,-7.9400496,2.112402,9.422348,1.7109994,1.0531217,-6.9791433,110.40862
1780724380154,-3.62295,7.1580005,6.1720505,-0.1689875,-0.062425,-0.06875,-5.634883,-2.2640767,4.3425713,2.011933,9.422077,1.829479,1.0531217,-6.9791433,110.40862
1780724380161,22.948952,-4.38495,-2.04495,-0.1678875,-0.586025,0.5707625,20.909407,-13.800549,-3.8771968,2.0395448,9.415599,1.8322468,1.0531217,-6.9791433,110.40862
1780724380165,6.3420005,8.500951,7.4410505,-8.25E-4,-0.00605,0.015262499,4.2834826,-0.9084091,5.5979977,2.0585182,9.40936,1.8430527,1.0531217,-6.9791433,110.40862
1780724380176,-13.275001,18.91995,2.181,0.5493125,-0.207075,-0.0411125,3.7160962,3.033495,-15.938322,2.019904,9.424456,1.8083214,1.0531217,-6.9791433,110.40862
1780724380177,5.736,12.457951,-14.130001,0.5493125,-0.207075,-0.0411125,3.7160962,3.033495,-15.938322,2.019904,9.424456,1.8083214,1.0531217,-6.9791433,110.40862
1780724380186,-1.70895,15.054001,-0.47805002,-0.4329875,0.1749,-0.4774,-19.06749,2.6845293,9.739536,1.999439,9.426472,1.8205142,1.0531217,-6.9791433,110.40862
1780724380186,-17.06805,12.111001,11.560051,-0.4329875,0.1749,-0.4774,-19.06749,2.6845293,9.739536,1.999439,9.426472,1.8205142,1.0531217,-6.9791433,110.40862
1780724380191,12.8539505,-0.17205001,-0.75900006,-0.1359875,-0.4136,0.35365,10.822548,-9.590982,-2.5831475,2.031403,9.418932,1.8241473,1.0531217,-6.9791433,110.40862
1780724380196,17.04495,4.8559504,-3.9750001,0.1065625,-0.5328125,0.33673748,14.982202,-4.5585318,-5.786907,2.062749,9.414482,1.8119072,1.0531217,-6.9791433,110.40862
1780724380216,-8.106,15.8230505,8.425051,0.0512875,0.298375,-0.419925,5.521658,5.937764,-4.357558,2.0443425,9.425237,1.7765076,1.0531217,-6.9791433,110.40862
1780724380216,2.8980002,10.792951,-1.1080501,0.0512875,0.298375,-0.419925,5.521658,5.937764,-4.357558,2.0443425,9.425237,1.7765076,1.0531217,-6.9791433,110.40862
1780724380216,7.5660005,15.363001,-2.5810502,0.0512875,0.298375,-0.419925,5.521658,5.937764,-4.357558,2.0443425,9.425237,1.7765076,1.0531217,-6.9791433,110.40862
1780724380220,-18.297,12.98505,1.17795,0.095975,0.380325,-0.5135625,-20.320084,3.554594,-0.5951978,2.0230823,9.430456,1.7731478,1.0531217,-6.9791433,110.40862
1780724380225,1.09395,1.6350001,1.5850501,-0.1689875,-0.438075,0.38665,-0.9177995,-7.79652,-0.19531178,2.0117495,9.43152,1.7803619,1.0531217,-6.9791433,110.40862
1780724380230,14.269051,5.34495,3.7770002,-0.1689875,-0.438075,0.38665,12.2276745,-4.0785384,1.9878511,2.0413759,9.423489,1.789149,1.0531217,-6.9791433,110.40862
1780724380235,-8.98305,16.29495,0.77595,0.31625,0.1227875,-0.2795375,-11.016517,6.867777,-1.0027649,2.0334666,9.427174,1.778715,1.0531217,-6.9791433,110.40862
1780724380247,7.2829504,10.317,-6.1210504,0.0012375,0.4835875,-0.56045,11.823692,2.6854086,6.598695,2.0502589,9.427542,1.7573557,1.0531217,-6.9791433,110.40862
1780724380247,13.873951,12.11295,8.3560505,0.0012375,0.4835875,-0.56045,11.823692,2.6854086,6.598695,2.0502589,9.427542,1.7573557,1.0531217,-6.9791433,110.40862
1780724380251,-18.381,12.966001,4.5480003,0.275825,-0.2539625,-0.1623875,-20.410088,3.5356941,2.7809389,2.0502589,9.427542,1.7573557,1.0531217,-6.9791433,110.40862
1780724380255,0.8880001,6.47805,-6.7650003,0.275825,-0.2539625,-0.1623875,-1.1327119,-2.9793224,-8.39142,2.020712,9.457373,1.6264205,1.0531217,-6.9791433,110.40862
1780724380259,13.740001,7.452,-1.2040501,-0.07755,-0.4466,0.362175,11.691624,-2.0005727,-2.823739,2.0483773,9.452573,1.6196891,1.0531217,-6.9791433,110.40862
1780724380261,-12.052951,13.003951,4.119,0.0044,0.2292125,-0.341275,-14.088896,3.5491304,2.4967523,2.0359445,9.454821,1.6222476,1.0531217,-6.9791433,110.40862
1780724380266,6.5410504,10.927051,-1.60395,0.08855,-0.1199,-0.0336875,4.5054946,1.4698954,-3.213024,2.0355558,9.457155,1.6090739,1.0531217,-6.9791433,110.40862
1780724380277,12.724951,12.954,3.8700001,0.02365,0.4037,-0.5434,10.670444,3.5001593,2.2655387,2.054507,9.453841,1.6044614,1.0531217,-6.9791433,110.40862
1780724380280,-17.289001,11.359051,3.6090002,0.02365,0.4037,-0.5434,-19.322277,1.9012461,2.0008602,2.0332747,9.457805,1.6081401,1.0531217,-6.9791433,110.40862
1780724380288,3.216,5.70405,-1.3050001,0.0246125,-0.258225,-0.086899996,1.1942785,-3.7574577,-2.905911,2.0217216,9.461508,1.6009108,1.0531217,-6.9791433,110.40862
1780724380295,10.92405,9.189,-3.1219501,0.1918125,0.150425,-0.3859625,8.87525,-0.2689743,-4.70926,2.0488005,9.457974,1.5873098,1.0531217,-6.9791433,110.40862
1780724380296,-10.473001,13.287001,-0.99600005,0.1918125,0.150425,-0.3859625,-12.504402,3.8235207,-2.5728111,2.031402,9.46348,1.576811,1.0531217,-6.9791433,110.40862
1780724380301,8.940001,8.767051,1.743,-0.0859375,-0.1571625,0.05995,6.897439,-0.69428635,0.1677357,2.0425618,9.461337,1.5752643,1.0531217,-6.9791433,110.40862
1780724380310,6.078,12.087001,9.08895,0.2715625,0.3729,-0.504075,4.023741,2.6299934,7.5029364,2.0542595,9.457007,1.5860137,1.0531217,-6.9791433,110.40862
1780724380317,-16.233002,11.4210005,2.529,0.2715625,0.3729,-0.504075,-18.262375,1.9582977,0.94492316,2.029374,9.462703,1.5840769,1.0531217,-6.9791433,110.40862
1780724380321,6.9480004,7.7730002,-7.0980005,0.2226125,-0.307175,0.09405,4.9071226,-1.6939998,-8.6410885,2.0408778,9.467,1.5430876,1.0531217,-6.9791433,110.40862
1780724380326,7.3380003,10.20705,-4.7059503,-0.14135,-0.258225,0.133375,-10.228516,0.8062868,-1.386183,2.0475144,9.469764,1.517133,1.0531217,-6.9791433,110.40862
1780724380326,-8.181001,10.276051,0.13095,-0.14135,-0.258225,0.133375,-10.228516,0.8062868,-1.386183,2.0475144,9.469764,1.517133,1.0531217,-6.9791433,110.40862
1780724380331,12.064051,10.456051,2.9910002,-0.14135,-0.258225,0.133375,10.0199,0.98595905,1.4713987,2.0441506,9.470092,1.5196015,1.0531217,-6.9791433,110.40862
1780724380335,1.34595,12.469951,3.0889502,-0.04235,-0.125125,-0.0209,-0.70181787,3.0014448,1.5643394,2.0477679,9.468506,1.5246108,1.0531217,-6.9791433,110.40862
1780724380344,-11.203051,11.0449505,-1.7809501,0.3034625,0.249425,-0.3700125,-13.223928,1.5689144,-3.2946227,2.0208778,9.476036,1.5136726,1.0531217,-6.9791433,110.40862
1780724380355,9.987,8.097,-4.6410003,0.016224999,0.25685,-0.1742125,7.950388,-1.3786697,-6.1357484,2.0366127,9.47567,1.4947481,1.0531217,-6.9791433,110.40862
1780724380358,0.35700002,7.491,-1.4080501,0.016224999,0.25685,-0.1742125,-1.6807038,-1.9855347,-2.8958278,2.0377038,9.476535,1.4877777,1.0531217,-6.9791433,110.40862
1780724380364,-3.93705,7.2250504,2.5189502,-0.102025,-0.0070125,0.0397375,-5.9422417,-2.255649,1.0136409,2.0051916,9.4807,1.5053093,1.0531217,-6.9791433,110.40862
1780724380368,10.939951,12.0390005,4.5880504,-0.0210375,-0.2858625,0.0642125,8.923561,2.5607033,3.0825791,2.01639,9.478297,1.5054712,1.0531217,-6.9791433,110.40862
1780724380378,-6.5020504,12.39795,-0.19305001,-0.0039875,-0.14533749,0.119625,-8.494421,2.9127302,-1.686846,1.992371,9.48522,1.493796,1.0531217,-6.9791433,110.40862
1780724380383,-3.834,10.450951,-1.6020001,-0.0039875,-0.14533749,0.119625,-5.7961016,0.9561367,-3.0747814,1.9621012,9.494814,1.4727813,1.0531217,-6.9791433,110.40862
1780724380388,9.493951,8.13,-3.4939501,0.05555,0.2451625,-0.0815375,7.5148206,-1.3634644,-4.9525633,1.9791304,9.493464,1.458613,1.0531217,-6.9791433,110.40862
1780724380391,-2.8249502,7.22205,-1.0030501,0.05555,0.2451625,-0.0815375,-4.799297,-2.2735791,-2.4540386,1.9743466,9.495629,1.4509885,1.0531217,-6.9791433,110.40862
1780724380399,3.147,9.844951,1.87995,-0.0317625,-0.1720125,0.09295,1.1588812,0.35281754,0.42489564,1.9881189,9.492133,1.4550544,1.0531217,-6.9791433,110.40862
1780724380405,6.9259505,12.846001,-0.99105006,0.098175,0.201575,-0.1145375,4.931591,3.3537703,-2.436914,1.9943595,9.49223,1.445864,1.0531217,-6.9791433,110.40862
1780724380409,-5.2369504,10.86495,-3.0649502,-0.0977625,-0.2039125,0.0429,-7.2052226,1.3642502,-4.4907846,1.9682723,9.5007,1.4258342,1.0531217,-6.9791433,110.40862
1780724380411,2.5099502,9.72795,-1.4170501,-0.0977625,-0.2039125,0.0429,0.52416503,0.22240353,-2.7851276,1.9857851,9.505547,1.3680776,1.0531217,-6.9791433,110.40862
1780724380420,1.9159501,8.281051,0.864,-0.089237496,0.1079375,-0.0400125,-0.07061136,-1.224021,-0.50624436,1.9865614,9.505072,1.3702444,1.0531217,-6.9791433,110.40862
1780724380428,-4.677,6.9490504,1.1590501,0.31515,0.2292125,-0.0730125,4.56695,2.9513845,1.5180928,1.9660008,9.508666,1.3749574,1.0531217,-6.9791433,110.40862
1780724380428,6.5329504,12.460051,2.8930502,0.31515,0.2292125,-0.0730125,4.56695,2.9513845,1.5180928,1.9660008,9.508666,1.3749574,1.0531217,-6.9791433,110.40862
1780724380431,0.31800002,11.45205,-3.0670502,0.31515,0.2292125,-0.0730125,-1.640801,1.937562,-4.411674,1.958801,9.514488,1.3446237,1.0531217,-6.9791433,110.40862
1780724380439,-0.21900001,9.924001,-2.085,-0.098725,-0.06985,0.05995,-2.1491942,0.39435863,-3.3619752,1.9301941,9.529642,1.2769752,1.0531217,-6.9791433,110.40862
1780724380445,7.0200005,8.64,-1.2900001,0.012925,0.247225,-0.128425,5.05562,-0.8853264,-2.546884,1.9643803,9.525327,1.256884,1.0531217,-6.9791433,110.40862
1780724380450,-2.8470001,8.06805,1.5370501,0.0077,-0.044275,0.018424999,-4.7795177,-1.4623823,0.2695197,1.9325174,9.530433,1.2675304,1.0531217,-6.9791433,110.40862
1780724380459,-0.98100007,9.07905,2.4469502,-0.1104125,-0.2294875,0.077,-4.4258246,2.0837898,-6.754219,1.8807746,9.540161,1.2721686,1.0531217,-6.9791433,110.40862
1780724380460,3.7819502,13.705951,-0.61005,-0.1104125,-0.2294875,0.077,-4.4258246,2.0837898,-6.754219,1.8807746,9.540161,1.2721686,1.0531217,-6.9791433,110.40862
1780724380460,-2.5450501,11.623951,-5.4820504,-0.1104125,-0.2294875,0.077,-4.4258246,2.0837898,-6.754219,1.8807746,9.540161,1.2721686,1.0531217,-6.9791433,110.40862
1780724380465,5.0869503,9.75195,-4.05405,-0.1104125,-0.2294875,0.077,3.1883798,0.21048355,-5.2894535,1.8985707,9.541467,1.2354034,1.0531217,-6.9791433,110.40862
1780724380466,6.3160505,8.134951,0.033,-0.1678875,0.0493625,-0.0240625,4.3531327,-1.3958321,-1.1841943,1.9629178,9.530783,1.2171943,1.0531217,-6.9791433,110.40862
1780724380474,-0.39405003,6.8580003,3.657,-0.032725,0.176,-0.0826375,-2.3472273,-2.6730914,2.4266438,1.9531773,9.531092,1.2303561,1.0531217,-6.9791433,110.40862
1780724380481,3.35505,12.142051,4.098,-0.0072875,-0.1848,-0.1199,1.4057537,2.6108046,2.8626947,1.9492964,9.531246,1.2353052,1.0531217,-6.9791433,110.40862
1780724380484,-1.0819501,10.6039505,-2.3059502,-0.0317625,0.018424999,-0.0826375,-3.005666,1.0625286,-3.502182,1.923716,9.541422,1.1962317,1.0531217,-6.9791433,110.40862
1780724380487,-4.6980004,11.268001,-0.67200005,-0.0317625,0.018424999,-0.0826375,-6.597729,1.7209616,-1.8617442,1.8997289,9.547039,1.1897441,1.0531217,-6.9791433,110.40862
1780724380496,1.0680001,10.174951,-2.4520502,-0.0317625,0.018424999,-0.0826375,-6.597729,1.7209616,-1.8617442,1.8997289,9.547039,1.1897441,1.0531217,-6.9791433,110.40862
1780724380500,3.3769503,6.4300504,-0.26805001,-0.049775,0.087725,0.119625,1.4714475,-3.1216025,-1.4105835,1.9055028,9.551653,1.1425334,1.0531217,-6.9791433,110.40862
1780724380505,2.63895,9.92895,3.66405,0.1832875,0.0749375,-0.0314875,0.7220162,2.6201553,-0.3789,1.9049338,9.549795,1.1589,1.0531217,-6.9791433,110.40862
1780724380505,2.62695,12.1699505,0.78000003,0.1832875,0.0749375,-0.0314875,0.7220162,2.6201553,-0.3789,1.9049338,9.549795,1.1589,1.0531217,-6.9791433,110.40862
1780724380514,0.75000006,9.77505,-1.98195,0.0820875,0.106837496,-0.0188375,-1.1378219,0.21162415,-3.0531232,1.8878219,9.563426,1.0711732,1.0531217,-6.9791433,110.40862
1780724380522,-1.71405,11.682,1.06305,0.0757625,0.077,0.077,-3.5826604,2.1151447,-0.011165619,1.8686104,9.566855,1.0742157,1.0531217,-6.9791433,110.40862
1780724380532,-1.4430001,9.802051,-0.162,0.0023375,-0.043175,-0.0752125,1.2031887,4.74928,-1.4359189,1.8028114,9.586671,1.0079689,1.0531217,-6.9791433,110.40862
1780724380536,3.351,7.6369505,-2.7540002,0.2248125,0.1791625,0.102575,0.07419264,1.7431097,-5.092702,1.8057574,9.588941,0.98075175,1.0531217,-6.9791433,110.40862
1780724380536,3.006,14.335951,-0.42795002,0.2248125,0.1791625,0.102575,0.07419264,1.7431097,-5.092702,1.8057574,9.588941,0.98075175,1.0531217,-6.9791433,110.40862
1780724380537,1.87995,11.33205,-4.1119504,0.2248125,0.1791625,0.102575,0.07419264,1.7431097,-5.092702,1.8057574,9.588941,0.98075175,1.0531217,-6.9791433,110.40862
1780724380548,5.1589503,10.56795,-2.9929502,0.0066,-0.0581625,-0.0985875,-3.0199256,-2.811008,2.8023458,1.7948756,9.589958,0.9907044,1.0531217,-6.9791433,110.40862
1780724380548,1.3219501,11.080951,1.3069501,0.0066,-0.0581625,-0.0985875,-3.0199256,-2.811008,2.8023458,1.7948756,9.589958,0.9907044,1.0531217,-6.9791433,110.40862
1780724380549,-1.2250501,6.77895,3.7930503,0.0066,-0.0581625,-0.0985875,-3.0199256,-2.811008,2.8023458,1.7948756,9.589958,0.9907044,1.0531217,-6.9791433,110.40862
1780724380564,2.05695,11.0779505,3.4680002,0.0066,-0.0581625,-0.0985875,-2.3624494,1.460803,-7.346597,1.7784994,9.598248,0.9385966,1.0531217,-6.9791433,110.40862
1780724380564,-0.57900006,11.016001,-5.2249503,-0.1467125,-0.125125,-0.0985875,-2.3624494,1.460803,-7.346597,1.7784994,9.598248,0.9385966,1.0531217,-6.9791433,110.40862
1780724380564,-0.58395004,11.059051,-6.4080005,-0.1467125,-0.125125,-0.0985875,-2.3624494,1.460803,-7.346597,1.7784994,9.598248,0.9385966,1.0531217,-6.9791433,110.40862
1780724380567,1.3750501,10.812,0.24195,-0.1467125,-0.125125,-0.0985875,-0.39696515,1.2123308,-0.6943728,1.7720152,9.599669,0.9363228,1.0531217,-6.9791433,110.40862
1780724380577,-1.6800001,6.3190503,6.9160504,-0.286,0.106837496,-0.0103124995,-3.389729,-3.2767997,5.835825,1.7097288,9.59585,1.0802257,1.0531217,-6.9791433,110.40862
1780724380578,1.7389501,7.9909506,4.99095,0.1799875,-0.175175,-0.0177375,0.03447175,-1.594656,3.8156672,1.7044784,9.585607,1.175283,1.0531217,-6.9791433,110.40862
1780724380582,4.227,12.508051,-3.4770002,0.1799875,-0.175175,-0.0177375,0.03447175,-1.594656,3.8156672,1.7081954,9.586893,1.1592876,1.0531217,-6.9791433,110.40862
1780724380587,-0.59295005,12.20205,-8.073,0.4929375,0.16005,-0.055,-2.297035,2.6106176,-9.200351,1.704085,9.591433,1.1273504,1.0531217,-6.9791433,110.40862
1780724380593,2.0760002,11.136001,-4.24305,0.4929375,0.16005,-0.055,0.37261987,1.541954,-5.349015,1.7033803,9.594047,1.1059651,1.0531217,-6.9791433,110.40862
1780724380597,2.9310002,9.415951,2.1790502,-0.20625,-0.030524999,-0.030524999,1.2104945,-0.17189026,1.0461036,1.7205057,9.587841,1.1329466,1.0531217,-6.9791433,110.40862
1780724380603,-1.029,8.865001,4.12605,-0.0785125,0.1441,-0.0644875,-2.6412835,-0.7228079,2.8435235,1.6122836,9.587809,1.2825264,1.0531217,-6.9791433,110.40862
1780724380608,2.433,13.14795,4.12395,-0.087037496,-0.0858,-0.0889625,0.82543504,3.5601473,2.8354754,1.607565,9.587803,1.2884744,1.0531217,-6.9791433,110.40862
1780724380618,2.6800501,10.98495,-6.47805,0.4280375,0.0994125,-0.00605,1.0709344,1.3936386,-7.738162,1.6091157,9.591311,1.2601117,1.0531217,-6.9791433,110.40862
1780724380623,0.57900006,13.18395,-10.189951,0.1992375,0.020624999,-0.061325,-1.0281186,3.589593,-11.429257,1.6071187,9.5943575,1.2393062,1.0531217,-6.9791433,110.40862
1780724380633,0.60300004,12.427051,-3.8050501,0.1992375,0.020624999,-0.061325,-0.8053833,-4.135269,3.8390496,1.5933334,9.595269,1.2500007,1.0531217,-6.9791433,110.40862
1780724380634,0.78795004,5.46,5.0890503,0.1992375,0.020624999,-0.061325,-0.8053833,-4.135269,3.8390496,1.5933334,9.595269,1.2500007,1.0531217,-6.9791433,110.40862
1780724380641,2.0070002,10.210951,9.84105,0.3887125,0.0259875,-0.00495,1.9619796,1.0392294,-3.7468386,1.5990205,9.593822,1.2538387,1.0531217,-6.9791433,110.40862
1780724380645,3.561,10.633051,-2.493,0.3887125,0.0259875,-0.00495,2.3363738,1.2640581,-9.628109,1.5966263,9.598943,1.2171581,1.0531217,-6.9791433,110.40862
1780724380645,3.933,10.863001,-8.410951,0.3887125,0.0259875,-0.00495,2.3363738,1.2640581,-9.628109,1.5966263,9.598943,1.2171581,1.0531217,-6.9791433,110.40862
1780724380649,-0.744,11.896951,-3.7999501,-0.264825,0.1142625,-0.1379125,-2.3265154,2.2934332,-4.9993224,1.5825154,9.603518,1.1993723,1.0531217,-6.9791433,110.40862
1780724380656,-2.061,7.938,4.42995,-0.264825,0.1142625,-0.1379125,-3.5899189,-1.666183,3.1680183,1.5289187,9.604183,1.2619319,1.0531217,-6.9791433,110.40862
1780724380666,1.8420001,8.83695,4.263,0.0449625,-0.2838,-0.10285,2.9129496,1.244298,-4.4125395,1.5320007,9.594703,1.3285394,1.0531217,-6.9791433,110.40862
1780724380666,4.44495,10.839001,-3.084,0.0449625,-0.2838,-0.10285,2.9129496,1.244298,-4.4125395,1.5320007,9.594703,1.3285394,1.0531217,-6.9791433,110.40862
1780724380680,2.7109501,10.816951,-5.8050003,0.36313748,0.0237875,-0.0900625,-1.666053,1.8429003,-3.57705,1.5180031,9.604051,1.2760499,1.0531217,-6.9791433,110.40862
1780724380686,-0.14805001,11.446951,-2.301,-0.0944625,-0.1188,-0.2443375,-1.666053,1.8429003,-3.57705,1.5180031,9.604051,1.2760499,1.0531217,-6.9791433,110.40862
1780724380686,-0.63405,8.784,2.1049502,-0.0944625,-0.1188,-0.2443375,-1.666053,1.8429003,-3.57705,1.5180031,9.604051,1.2760499,1.0531217,-6.9791433,110.40862
1780724380701,1.3099501,7.9170003,2.5170002,-0.01155,-0.2517625,-0.1623875,1.7789555,4.290964,0.23614359,1.4809947,9.606087,1.3039064,1.0531217,-6.9791433,110.40862
1780724380701,3.2599502,13.897051,1.54005,-0.01155,-0.2517625,-0.1623875,1.7789555,4.290964,0.23614359,1.4809947,9.606087,1.3039064,1.0531217,-6.9791433,110.40862
1780724380705,2.26305,10.471951,-7.254,-0.0562375,-0.1837,-0.1475375,0.77869356,0.8637619,-8.538448,1.4843565,9.608189,1.2844483,1.0531217,-6.9791433,110.40862
1780724380709,3.51795,12.016951,-2.943,-0.0562375,-0.1837,-0.1475375,-3.4929602,1.9458818,1.5301867,1.4649601,9.614169,1.2617636,1.0531217,-6.9791433,110.40862
1780724380709,-2.028,11.560051,2.7919502,-0.132825,-0.1199,-0.33055,-3.4929602,1.9458818,1.5301867,1.4649601,9.614169,1.2617636,1.0531217,-6.9791433,110.40862
1780724380711,-1.6639501,6.8749504,5.3260503,-0.1838375,-0.0187,-0.18259999,-3.0843027,-2.7393312,4.0151005,1.4203526,9.614282,1.3109499,1.0531217,-6.9791433,110.40862
1780724380722,4.35195,10.18305,4.33005,0.3727625,-0.1071125,-0.193325,2.928238,0.57114315,3.0054078,1.4237124,9.611907,1.3246423,1.0531217,-6.9791433,110.40862
1780724380724,0.87900007,11.826,-8.262,0.5407875,-0.0666875,-0.2039125,-0.5286815,2.205717,-9.542223,1.4076816,9.620283,1.2802234,1.0531217,-6.9791433,110.40862
1780724380729,0.24900001,14.616001,-7.728,-0.180675,-0.2380125,-0.2635875,-1.1478126,4.993923,-9.006651,1.3968127,9.622078,1.2786504,1.0531217,-6.9791433,110.40862
1780724380734,0.15105,11.74905,1.0819501,-0.180675,-0.2380125,-0.2635875,-1.1478126,4.993923,-9.006651,1.3915123,9.623023,1.2773124,1.0531217,-6.9791433,110.40862
1780724380748,1.15695,4.056,5.4100504,-0.361625,-0.077275,-0.1082125,4.0519667,-1.218544,3.254076,1.4039836,9.614494,1.3269243,1.0531217,-6.9791433,110.40862
1780724380748,5.4559503,8.39595,4.5810003,0.229075,-0.1868625,-0.290125,4.0519667,-1.218544,3.254076,1.4039836,9.614494,1.3269243,1.0531217,-6.9791433,110.40862
1780724380756,0.70605004,11.814,-5.39505,0.013062499,-0.0858,-0.2135375,-0.68716407,2.1945515,-6.6971836,1.3932141,9.619449,1.3021336,1.0531217,-6.9791433,110.40862
1780724380757,-1.1920501,12.240001,-6.09705,0.013062499,-0.0858,-0.2135375,-0.68716407,2.1945515,-6.6971836,1.3932141,9.619449,1.3021336,1.0531217,-6.9791433,110.40862
1780724380761,-1.7209501,11.368051,-1.7310001,-0.1381875,-0.13365,-0.078375,-3.0639791,1.736764,-2.9978743,1.343029,9.631287,1.2668741,1.0531217,-6.9791433,110.40862
1780724380762,-1.197,8.7289505,2.3370001,-0.1381875,-0.13365,-0.078375,-2.517553,-0.9034138,1.0547695,1.3205531,9.632364,1.2822306,1.0531217,-6.9791433,110.40862
1780724380766,3.04395,8.53695,2.36805,0.0088,-0.2699125,-0.112475,1.7044024,-1.0907717,1.0707446,1.3395476,9.627722,1.2973055,1.0531217,-6.9791433,110.40862
1780724380771,4.6410003,11.313001,-1.5780001,0.1480875,-0.2517625,-0.1879625,3.2992654,1.6833963,-2.8589664,1.341735,9.629604,1.2809663,1.0531217,-6.9791433,110.40862
1780724380775,3.7740002,9.0709505,-4.701,0.1247125,-0.0570625,-0.1390125,2.415913,-0.5644016,-5.9200106,1.358087,9.635352,1.2190105,1.0531217,-6.9791433,110.40862
1780724380784,-0.078,11.416051,-3.8940003,-0.066825,-0.0644875,-0.1794375,-1.4180096,1.7756491,-5.0929313,1.3400097,9.640402,1.198931,1.0531217,-6.9791433,110.40862
1780724380787,-1.695,10.70205,-2.01105,-0.1593625,-0.29755,-0.2124375,-0.73236597,-1.0960398,-2.4987307,1.295316,9.65009,1.1697307,1.0531217,-6.9791433,110.40862
1780724380788,0.56295,8.55405,-1.3290001,-0.1593625,-0.29755,-0.2124375,-0.73236597,-1.0960398,-2.4987307,1.295316,9.65009,1.1697307,1.0531217,-6.9791433,110.40862
1780724380793,2.38995,12.999001,2.83095,0.12265,-0.125125,-0.1060125,1.0939317,3.3492584,1.6591157,1.2960184,9.649742,1.1718343,1.0531217,-6.9791433,110.40862
1780724380797,2.59605,8.302951,-1.2589501,-0.0636625,-0.243375,-0.2613875,1.29503,-1.3488522,-2.4080634,1.30102,9.651803,1.1491133,1.0531217,-6.9791433,110.40862
1780724380802,3.5400002,8.293051,-0.85395,0.0290125,-0.143275,-0.324225,2.2259,-1.3592291,-1.9840062,1.3141003,9.65228,1.1300561,1.0531217,-6.9791433,110.40862
1780724380813,-0.90000004,11.148001,-0.081,0.0290125,-0.143275,-0.324225,-2.612037,-0.14472198,-2.716115,1.1900369,9.682773,0.9990648,1.0531217,-6.9791433,110.40862
1780724380813,-1.422,9.538051,-1.7170501,0.0842875,-0.1475375,-0.16665,-2.612037,-0.14472198,-2.716115,1.1900369,9.682773,0.9990648,1.0531217,-6.9791433,110.40862
1780724380818,4.1740503,12.333,0.124050006,-0.087037496,-0.422125,-0.21133749,2.9867096,2.6494894,-0.87105644,1.1873407,9.683511,0.99510646,1.0531217,-6.9791433,110.40862
1780724380824,2.256,9.96,-1.8460501,0.1098625,-0.1315875,-0.2209625,1.0632416,0.27287388,-2.798569,1.1927584,9.687126,0.95251876,1.0531217,-6.9791433,110.40862
1780724380831,2.016,9.06705,0.96495,-0.1115125,-0.2189,-0.2283875,0.82235694,-0.61991787,0.011917472,1.1936431,9.686968,0.95303255,1.0531217,-6.9791433,110.40862
1780724380833,0.80700004,10.02,-1.386,0.080025,-0.339075,-0.36574998,-0.36898553,0.32639408,-2.292359,1.1759856,9.693606,0.9063591,1.0531217,-6.9791433,110.40862
1780724380847,-0.08505,8.623051,-3.00495,0.0906125,-0.0847,-0.1879625,-0.5733227,2.1159887,-1.6506267,1.1452727,9.702062,0.8536767,1.0531217,-6.9791433,110.40862
1780724380848,0.57195,11.81805,-0.79695004,0.0842875,-0.2272875,-0.26675,-0.5733227,2.1159887,-1.6506267,1.1452727,9.702062,0.8536767,1.0531217,-6.9791433,110.40862
1780724380853,-0.555,12.831,-2.73705,-0.0540375,-0.33165,-0.144375,-1.6777058,3.1250772,-3.576665,1.1227058,9.705923,0.83961487,1.0531217,-6.9791433,110.40862
1780724380858,2.8140001,9.141001,-4.5,-0.0540375,-0.33165,-0.144375,1.0924995,2.7165651,0.79962444,1.1155007,9.710485,0.79532564,1.0531217,-6.9791433,110.40862
1780724380858,2.2080002,12.427051,1.5949501,-0.1775125,-0.20075,-0.258225,1.0924995,2.7165651,0.79962444,1.1155007,9.710485,0.79532564,1.0531217,-6.9791433,110.40862
1780724380863,-2.2120502,10.815001,5.367,-0.0625625,-0.3337125,-0.1986875,-3.3174324,1.1045904,4.556755,1.1053821,9.71041,0.810245,1.0531217,-6.9791433,110.40862
1780724380868,2.57205,6.0370502,5.23005,0.19607499,-0.2613875,-0.39875,1.4695178,-3.6717682,4.397201,1.1025323,9.708818,0.832849,1.0531217,-6.9791433,110.40862
1780724380882,1.2,13.321951,4.6530004,-0.07645,-0.4582875,-0.160325,-6.785962,6.1320095,-5.2639146,1.0679616,9.715041,0.80486447,1.0531217,-6.9791433,110.40862
1780724380883,-5.7180004,15.847051,-4.45905,-0.07645,-0.4582875,-0.160325,-6.785962,6.1320095,-5.2639146,1.0679616,9.715041,0.80486447,1.0531217,-6.9791433,110.40862
1780724380885,0.68700004,14.629951,-2.9329503,-0.181775,-0.3487,-0.1199,-0.37419128,4.9136486,-3.7315364,1.0611913,9.716302,0.7985861,1.0531217,-6.9791433,110.40862
1780724380888,4.63695,10.209001,1.6330501,-0.181775,-0.3487,-0.1199,3.5649257,0.4945736,0.82616085,1.0720242,9.714427,0.80688924,1.0531217,-6.9791433,110.40862
1780724380893,4.263,5.6610003,0.47895002,0.0746625,-0.2550625,-0.1720125,3.1918,-4.053728,-0.32541293,1.0711998,9.714728,0.80436295,1.0531217,-6.9791433,110.40862
1780724380897,5.2309504,13.107,-0.82995003,0.180125,-0.422125,-0.3837625,4.170222,3.390092,-1.6217364,1.0607287,9.716908,0.7917864,1.0531217,-6.9791433,110.40862
1780724380903,-3.357,12.85305,-8.764951,-0.1456125,-0.33055,-0.2954875,-4.3959002,3.1318035,-9.532054,1.0389003,9.721247,0.76710314,1.0531217,-6.9791433,110.40862
1780724380914,-4.5469503,12.86505,-5.33505,-0.0369875,-0.3944875,-0.0347875,-1.6003807,2.3322983,-2.5985878,1.0053306,9.725752,0.75463766,1.0531217,-6.9791433,110.40862
1780724380915,-0.59505004,12.05805,-1.84395,-0.0369875,-0.3944875,-0.0347875,-1.6003807,2.3322983,-2.5985878,1.0053306,9.725752,0.75463766,1.0531217,-6.9791433,110.40862
1780724380920,3.6450002,5.18895,-5.2969503,-0.1508375,-0.520025,-0.2146375,2.6287992,-4.537557,-6.02686,1.016201,9.726507,0.72991,1.0531217,-6.9791433,110.40862
1780724380925,10.143001,6.4009504,-2.39205,-0.0605,-0.18259999,-0.4987125,9.105217,-3.323964,-3.1127796,1.0377835,9.724915,0.72072953,1.0531217,-6.9791433,110.40862
1780724380929,1.281,10.80105,2.22,0.0066,-0.2475,-0.3018125,0.26384747,1.0750847,1.4841857,1.0171525,9.7259655,0.7358143,1.0531217,-6.9791433,110.40862
1780724380933,-3.11505,8.161051,0.21795002,0.1332375,-0.5009125,-0.3689125,-4.0931177,-1.569274,-0.51319575,0.97806764,9.730325,0.73114574,1.0531217,-6.9791433,110.40862
1780724380946,1.866,10.333051,-3.321,-0.2094125,-0.439175,-0.1199,-5.1008615,2.0737143,-6.206547,0.9418115,9.737287,0.6845967,1.0531217,-6.9791433,110.40862
1780724380948,-4.15905,11.811001,-5.5219502,-0.2094125,-0.439175,-0.1199,-5.1008615,2.0737143,-6.206547,0.9418115,9.737287,0.6845967,1.0531217,-6.9791433,110.40862
1780724380950,-0.15705001,7.182,-2.361,-0.2902625,-0.5550875,-0.2454375,-1.0978427,-2.5558424,-3.0390368,0.9407927,9.737843,0.67803663,1.0531217,-6.9791433,110.40862
1780724380954,7.21605,9.184051,3.66405,0.2173875,-0.1816375,-0.3284875,6.266514,-0.5515337,2.9660738,0.94953656,9.735584,0.6979764,1.0531217,-6.9791433,110.40862
1780724380968,-0.51900005,9.2029505,-0.078,0.2173875,-0.1816375,-0.3284875,0.28371918,2.3142242,-3.845194,0.9092308,9.741726,0.6651941,1.0531217,-6.9791433,110.40862
1780724380968,1.19295,12.05595,-3.18,-0.036025,-0.3911875,-0.3837625,0.28371918,2.3142242,-3.845194,0.9092308,9.741726,0.6651941,1.0531217,-6.9791433,110.40862
1780724380972,1.14705,13.52805,-4.689,-0.2487375,-0.161425,-0.3092375,0.25375032,3.7841015,-5.3431435,0.8932997,9.743949,0.65414315,1.0531217,-6.9791433,110.40862
1780724380974,-6.5730004,9.09,1.87995,-0.279675,-0.59125,-0.1837,-7.4063096,-0.6570244,1.1932864,0.83330905,9.747025,0.68666357,1.0531217,-6.9791433,110.40862
1780724380979,-0.57195,9.816001,9.58905,-0.279675,-0.59125,-0.1837,-1.4021678,0.069768906,8.887528,0.8302178,9.746232,0.7015216,1.0531217,-6.9791433,110.40862
1780724380985,2.3089502,9.981001,1.53495,0.12155,-0.3614875,-0.158125,1.4755423,0.2342968,0.8438464,0.8334078,9.746704,0.69110364,1.0531217,-6.9791433,110.40862
1780724380989,1.7310001,11.766001,-2.9839501,0.12155,-0.3614875,-0.158125,0.89457643,2.0186434,-3.662046,0.83642364,9.747357,0.6780957,1.0531217,-6.9791433,110.40862
1780724380999,3.3240001,13.80105,-1.7310001,0.12155,-0.3614875,-0.158125,-1.6778016,-0.5589695,-2.887135,0.79475164,9.75502,0.61508477,1.0531217,-6.9791433,110.40862
1780724380999,-0.88305,9.196051,-2.2720501,0.12155,-0.3614875,-0.158125,-1.6778016,-0.5589695,-2.887135,0.79475164,9.75502,0.61508477,1.0531217,-6.9791433,110.40862
1780724381004,-2.607,9.12195,1.815,-0.1232,-0.423225,-0.2847625,-3.3136327,-0.63704777,1.1569822,0.7066326,9.758998,0.65801793,1.0531217,-6.9791433,110.40862
1780724381009,-1.542,12.472051,2.96895,0.0661375,-0.389125,-0.20185,-2.233922,2.7123919,2.305088,0.69192195,9.759659,0.663862,1.0531217,-6.9791433,110.40862
1780724381014,2.7640502,10.21395,-6.8610005,0.3152875,-0.4508625,-0.00385,2.067082,0.4520712,-7.4857616,0.69696844,9.761879,0.624761,1.0531217,-6.9791433,110.40862
1780724381021,7.6740003,11.6959505,-9.201,0.080025,-0.5168625,-0.1890625,6.977564,1.9332533,-9.813464,0.6964362,9.762697,0.6124638,1.0531217,-6.9791433,110.40862
1780724381027,2.21805,8.25195,-5.1319504,-0.262625,-0.2550625,-0.3177625,1.4885638,-1.5166607,-5.592926,0.6964362,9.762697,0.6124638,1.0531217,-6.9791433,110.40862
1780724381032,-2.535,4.257,5.99205,-0.3636875,-0.24007499,-0.3262875,-3.2428348,-5.511567,5.497634,0.70783466,9.768567,0.4944161,1.0531217,-6.9791433,110.40862
1780724381036,-5.01,12.208951,9.972,0.0077,-0.452925,-0.38279998,-5.6968446,2.4393435,9.468609,0.6868442,9.769608,0.50339085,1.0531217,-6.9791433,110.40862
1780724381040,-4.57095,10.810051,-6.0709505,-0.13915,-0.600875,0.0323125,-5.242409,1.0376558,-6.539827,0.671459,9.772395,0.46887657,1.0531217,-6.9791433,110.40862
1780724381044,7.2349505,9.655951,-5.6200504,-0.13915,-0.600875,0.0323125,6.548707,-0.11620331,-6.0722365,0.6862436,9.772154,0.45218614,1.0531217,-6.9791433,110.40862
1780724381052,4.467,10.221001,1.3789501,-0.1445125,-0.3763375,-0.2827,3.7713013,0.44997025,0.9170141,0.69569886,9.77103,0.46193597,1.0531217,-6.9791433,110.40862
1780724381056,-3.14595,7.9170003,5.1780005,-0.0572,-0.2283875,-0.2497,-3.7389345,-1.8530631,4.5741735,0.5929843,9.770063,0.6038269,1.0531217,-6.9791433,110.40862
1780724381065,1.0129501,10.22595,6.83505,-0.0221375,-0.5220875,-0.23265,0.43025213,0.45642185,6.212822,0.5826979,9.769528,0.62222826,1.0531217,-6.9791433,110.40862
1780724381069,-5.3689504,12.135,2.2030501,0.2481875,-0.4976125,0.0334125,-5.929961,2.3636703,1.5892115,0.56101066,9.77133,0.6138386,1.0531217,-6.9791433,110.40862
1780724381075,-2.46105,10.932,-4.53105,0.323675,-0.5135625,-0.014575,-3.0125475,1.1579332,-5.108849,0.5514976,9.774067,0.5777987,1.0531217,-6.9791433,110.40862
1780724381081,8.91405,12.331051,-10.102051,0.323675,-0.5135625,-0.014575,8.356308,2.5562572,-10.661275,0.5577426,9.774794,0.5592238,1.0531217,-6.9791433,110.40862
1780724381088,-1.52505,12.616051,-9.694051,-0.4233625,-0.3422375,-0.142175,-2.07069,2.8398533,-10.240556,0.5456398,9.776197,0.5465046,1.0531217,-6.9791433,110.40862
1780724381090,-5.1870003,9.222,3.39105,-0.4233625,-0.3422375,-0.142175,-5.69053,-0.55429554,2.8071911,0.50352937,9.776296,0.583859,1.0531217,-6.9791433,110.40862
1780724381100,-3.04605,11.74695,13.720951,-0.4233625,-0.3422375,-0.142175,-3.544493,1.9714613,13.119508,0.49844286,9.775489,0.60144323,1.0531217,-6.9791433,110.40862
1780724381101,-4.5019503,11.32005,-3.8430002,0.6622,-0.44233748,0.0908875,-4.991592,1.5420036,-4.4090867,0.48964173,9.778047,0.56608665,1.0531217,-6.9791433,110.40862
1780724381106,14.004001,8.50395,-15.166951,-0.2765125,-0.2721125,-0.3092375,13.512956,-1.2741404,-15.731075,0.49104458,9.7780905,0.5641238,1.0531217,-6.9791433,110.40862
1780724381115,9.66405,7.1460004,-8.334001,-0.38073748,0.2184875,-0.356125,-10.797984,-5.389157,8.057462,0.4809838,9.778157,0.57158816,1.0531217,-6.9791433,110.40862
1780724381115,-10.317,4.3890004,8.62905,-0.38073748,0.2184875,-0.356125,-10.797984,-5.389157,8.057462,0.4809838,9.778157,0.57158816,1.0531217,-6.9791433,110.40862
1780724381120,-11.056951,13.135951,13.321051,0.0917125,-0.4241875,-0.224125,-11.525027,3.3574944,12.743917,0.46807638,9.778457,0.57713354,1.0531217,-6.9791433,110.40862
1780724381133,-9.081,18.673052,-2.59605,-0.280775,-0.520025,0.2781625,5.988165,-4.1616974,-0.13200456,0.54988515,9.776648,0.53400457,1.0531217,-6.9791433,110.40862
1780724381134,5.90805,9.41895,-12.396001,-0.280775,-0.520025,0.2781625,5.988165,-4.1616974,-0.13200456,0.54988515,9.776648,0.53400457,1.0531217,-6.9791433,110.40862
1780724381134,21.984001,2.39895,-6.5550003,-0.280775,-0.520025,0.2781625,5.988165,-4.1616974,-0.13200456,0.54988515,9.776648,0.53400457,1.0531217,-6.9791433,110.40862
1780724381134,6.53805,5.61495,0.402,-0.280775,-0.520025,0.2781625,5.988165,-4.1616974,-0.13200456,0.54988515,9.776648,0.53400457,1.0531217,-6.9791433,110.40862
1780724381146,-12.56805,9.84,1.164,0.1417625,0.168575,-0.5157625,-14.048553,9.292754,7.150864,0.51750296,9.778247,0.5370862,1.0531217,-6.9791433,110.40862
1780724381146,-13.531051,19.071001,7.68795,0.1417625,0.168575,-0.5157625,-14.048553,9.292754,7.150864,0.51750296,9.778247,0.5370862,1.0531217,-6.9791433,110.40862
1780724381152,-11.43795,13.821001,-4.45695,0.5003625,-0.2209625,0.297275,-11.938138,4.040865,-4.975748,0.50018793,9.780136,0.5187977,1.0531217,-6.9791433,110.40862
1780724381161,10.236,10.1629505,-18.625051,-0.393525,-0.3614875,0.183425,9.691845,0.38384438,-19.1184,0.5441548,9.779106,0.49334875,1.0531217,-6.9791433,110.40862
1780724381164,18.05805,5.8549504,-12.336,-0.393525,-0.3614875,0.183425,17.495657,-3.9227262,-12.837166,0.5441548,9.779106,0.49334875,1.0531217,-6.9791433,110.40862
1780724381170,-2.93805,3.8050501,10.593,-0.637175,0.2132625,-0.309375,-3.4728746,-5.9692287,10.003248,0.53482467,9.774279,0.5897522,1.0531217,-6.9791433,110.40862
1780724381182,-7.9099503,10.774051,14.952001,0.2248125,-0.3114375,0.265375,-4.7645154,7.2402983,-2.855085,0.52356535,9.775702,0.5761346,1.0531217,-6.9791433,110.40862
1780724381182,-4.24095,17.016,-2.2789502,0.2248125,-0.3114375,0.265375,-4.7645154,7.2402983,-2.855085,0.52356535,9.775702,0.5761346,1.0531217,-6.9791433,110.40862
1780724381188,-0.92100006,13.023001,-13.917001,-0.5020125,-0.2635875,0.2057,-1.4548445,3.2463179,-14.466418,0.5338444,9.776683,0.54941785,1.0531217,-6.9791433,110.40862
1780724381191,5.80095,7.4550004,-1.077,-0.411675,-0.175175,-0.0507375,5.1625085,-2.3165088,-1.6065061,0.63844144,9.771509,0.5295061,1.0531217,-6.9791433,110.40862
1780724381195,-3.1560001,7.4550004,12.175951,-0.411675,-0.175175,-0.0507375,-3.788836,-2.3148856,11.610931,0.63283587,9.769886,0.5650199,1.0531217,-6.9791433,110.40862
1780724381201,-4.794,7.2130504,9.658951,0.2418625,-0.036849998,0.2366375,-5.423393,-2.555859,9.073561,0.62939245,9.768909,0.5853905,1.0531217,-6.9791433,110.40862
1780724381205,4.2460504,15.934951,-1.8720001,0.4514125,-0.5413375,0.1780625,3.6032379,6.165494,-2.4331522,0.6521026,9.770503,0.5314695,1.0531217,-6.9791433,110.40862
1780724381206,0.061950002,13.906951,-12.906,0.5014625,-0.2294875,0.1557875,-0.59015256,4.136448,-13.4374695,0.6521026,9.770503,0.5314695,1.0531217,-6.9791433,110.40862
1780724381217,1.5160501,11.47395,-8.872951,-0.231825,-0.3251875,0.19195,-0.92606586,3.5427914,3.7119434,0.66311586,9.77016,0.5240566,1.0531217,-6.9791433,110.40862
1780724381218,-0.26295,13.312951,4.236,-0.231825,-0.3251875,0.19195,-0.92606586,3.5427914,3.7119434,0.66311586,9.77016,0.5240566,1.0531217,-6.9791433,110.40862
1780724381222,-3.8260503,6.7840505,4.7899504,0.0353375,-0.4455,0.3388,-4.461202,-2.9833846,4.1864667,0.63515204,9.767435,0.6034838,1.0531217,-6.9791433,110.40862
1780724381226,8.7300005,4.4869504,-2.8159502,0.275825,0.167475,-0.0177375,7.946516,-5.2740893,-3.3438249,0.7834844,9.76104,0.5278747,1.0531217,-6.9791433,110.40862
1780724381230,1.8250501,13.717951,-1.13205,0.3685,0.053625,0.083325,1.0363784,3.9566317,-1.6468678,0.78867173,9.761319,0.51481766,1.0531217,-6.9791433,110.40862
1780724381236,-13.435051,16.483952,-5.13,0.3685,0.053625,0.083325,-14.221616,6.7214174,-5.62459,0.7865648,9.762534,0.4945897,1.0531217,-6.9791433,110.40862
1780724381257,3.4420502,13.5379505,-9.486,-0.0774125,-0.4560875,0.527175,3.0108786,-0.96913815,10.662472,0.8741218,9.753139,0.53157943,1.0531217,-6.9791433,110.40862
1780724381258,9.8550005,7.08795,-3.0600002,0.9123125,0.380325,-0.0847,3.0108786,-0.96913815,10.662472,0.8741218,9.753139,0.53157943,1.0531217,-6.9791433,110.40862
1780724381258,1.3429501,-1.3050001,5.04405,0.9123125,0.380325,-0.0847,3.0108786,-0.96913815,10.662472,0.8741218,9.753139,0.53157943,1.0531217,-6.9791433,110.40862
1780724381258,3.8850002,8.784,11.194051,0.9123125,0.380325,-0.0847,3.0108786,-0.96913815,10.662472,0.8741218,9.753139,0.53157943,1.0531217,-6.9791433,110.40862
1780724381262,-12.250051,21.817951,0.46905002,0.9123125,0.380325,-0.0847,-13.119094,12.0625515,-0.02827233,0.86904377,9.7554,0.49732235,1.0531217,-6.9791433,110.40862
1780724381268,-9.859051,18.574951,-19.251001,0.3972375,-0.4263875,0.4175875,-10.727921,8.8195,-19.747631,0.8688699,9.755451,0.49663025,1.0531217,-6.9791433,110.40862
1780724381272,15.064951,8.128051,-8.016001,-0.490325,0.215325,0.1876875,14.179304,-1.6276083,-8.477679,0.8856465,9.755659,0.4616782,1.0531217,-6.9791433,110.40862
1780724381283,5.8489504,0.021000002,9.14595,0.651475,0.0567875,0.1450625,-2.637763,-5.3400292,3.5064955,0.97681296,9.739079,0.6054548,1.0531217,-6.9791433,110.40862
1780724381283,-1.6609501,4.39905,4.1119504,0.651475,0.0567875,0.1450625,-2.637763,-5.3400292,3.5064955,0.97681296,9.739079,0.6054548,1.0531217,-6.9791433,110.40862
1780724381291,4.5820503,17.61195,-4.80105,0.651475,0.0567875,0.1450625,3.5956576,7.871992,-5.376088,0.9863927,9.739958,0.575038,1.0531217,-6.9791433,110.40862
1780724381301,-17.161951,18.32595,-10.008,-0.5053125,-0.4147,0.5952375,-9.238251,1.5897379,-3.9514813,0.9882509,9.740212,0.56748134,1.0531217,-6.9791433,110.40862
1780724381301,-8.25,11.32995,-3.384,-0.5053125,-0.4147,0.5952375,-9.238251,1.5897379,-3.9514813,0.9882509,9.740212,0.56748134,1.0531217,-6.9791433,110.40862
1780724381307,11.557951,6.2119503,4.4160004,-0.212575,-0.109175,0.7453875,10.515214,-3.5212526,3.826189,1.0427374,9.733203,0.58981127,1.0531217,-6.9791433,110.40862
1780724381317,1.9849501,4.05105,0.31800002,-0.181775,-0.0559625,0.5229125,0.9238554,-5.679888,-0.27639097,1.0610946,9.730938,0.594391,1.0531217,-6.9791433,110.40862
1780724381318,11.54895,-0.63705003,-0.29595003,-0.181775,-0.0559625,0.5229125,10.41357,-10.359609,-0.89022756,1.0610946,9.730938,0.594391,1.0531217,-6.9791433,110.40862
1780724381323,2.32995,11.385,11.079,0.0449625,0.4569125,-0.1252625,1.1910688,1.6636257,10.472205,1.1388813,9.7213745,0.60679513,1.0531217,-6.9791433,110.40862
1780724381327,-26.66505,18.084002,-2.4540002,0.1694,-0.4912875,0.854975,-27.788677,8.359215,-3.0340014,1.1236277,9.724787,0.58000124,1.0531217,-6.9791433,110.40862
1780724381331,-3.798,18.89295,-14.671051,-0.41593748,-0.0974875,0.81345,-4.9530416,9.170592,-15.22967,1.1550416,9.722358,0.55861825,1.0531217,-6.9791433,110.40862
1780724381332,13.651051,10.314,-7.7860503,-0.7799,0.1461625,0.510125,12.44812,0.59795,-8.353244,1.1550416,9.722358,0.55861825,1.0531217,-6.9791433,110.40862
1780724381337,6.74205,-0.23505001,6.37305,-0.17325,-0.03575,0.4398625,5.4413137,-9.930006,5.675674,1.3007365,9.694956,0.69737613,1.0531217,-6.9791433,110.40862
1780724381354,14.668951,1.7670001,11.019,-0.1519375,-0.1837,0.4483875,-20.133526,12.800966,-19.632774,1.321576,9.694084,0.6697727,1.0531217,-6.9791433,110.40862
1780724381355,0.76095,20.754002,3.27795,-0.1519375,-0.1837,0.4483875,-20.133526,12.800966,-19.632774,1.321576,9.694084,0.6697727,1.0531217,-6.9791433,110.40862
1780724381355,-18.81195,22.49505,-18.963001,-0.1519375,-0.1837,0.4483875,-20.133526,12.800966,-19.632774,1.321576,9.694084,0.6697727,1.0531217,-6.9791433,110.40862
1780724381358,2.4720001,16.660952,-5.4619503,-0.8309125,0.198275,0.78045,1.1385143,6.9675083,-6.1171947,1.3334858,9.693443,0.65524435,1.0531217,-6.9791433,110.40862
1780724381359,4.3639503,9.450001,14.23305,-0.8309125,0.198275,0.78045,2.9921305,-0.23494434,13.532792,1.3718197,9.684945,0.70025843,1.0531217,-6.9791433,110.40862
1780724381365,0.56805,2.21895,5.0080504,0.0364375,-0.158125,0.68145,-0.82530844,-7.4608603,4.2798862,1.3933585,9.679811,0.7281641,1.0531217,-6.9791433,110.40862
1780724381369,18.838951,5.9359503,1.48905,0.0364375,-0.158125,0.68145,17.412766,-3.739069,0.76077664,1.4261849,9.675019,0.7282734,1.0531217,-6.9791433,110.40862
1780724381374,-7.6099505,18.06195,6.5809503,0.21945,0.477125,0.1557875,-9.051159,8.388778,5.8577247,1.4412082,9.673173,0.7232254,1.0531217,-6.9791433,110.40862
1780724381381,-21.906,15.277051,-4.7800503,-0.0796125,-0.1901625,0.7326,-23.332272,5.600664,-5.489774,1.426272,9.676387,0.7097241,1.0531217,-6.9791433,110.40862
1780724381385,7.39305,10.033951,-3.1219501,-0.0796125,-0.1901625,0.7326,5.929661,0.36180973,-3.81374,1.4633894,9.672141,0.69178987,1.0531217,-6.9791433,110.40862
1780724381392,0.76095,6.3750005,3.3670502,-0.196625,0.12595,0.6868125,-0.7404608,-3.2900262,2.6575365,1.5014108,9.665027,0.7095137,1.0531217,-6.9791433,110.40862
1780724381401,-1.9339501,1.1220001,2.35905,-0.196625,0.12595,0.6868125,-3.4518619,-8.539479,1.6364559,1.5179119,9.661479,0.72259414,1.0531217,-6.9791433,110.40862
1780724381404,17.66595,5.32095,-1.542,0.0045375,-0.1208625,0.804925,16.108543,-4.3340917,-2.266602,1.5574083,9.655042,0.724602,1.0531217,-6.9791433,110.40862
1780724381407,-5.5030503,14.922001,-9.46695,0.473825,0.460075,0.2462625,-7.079507,5.268569,-10.171535,1.5764564,9.653432,0.7045839,1.0531217,-6.9791433,110.40862
1780724381411,-9.838051,9.76305,-17.55195,0.473825,0.5676,0.0397375,-11.411005,0.10741043,-18.233734,1.5729543,9.65564,0.6817846,1.0531217,-6.9791433,110.40862
1780724381420,11.244,8.85105,0.78495,-0.541475,-0.0644875,0.7198125,9.632282,-0.7972727,0.09023172,1.6117187,9.648323,0.6947183,1.0531217,-6.9791433,110.40862
1780724381435,-8.260051,8.338051,8.863951,-0.18493749,-0.1326875,0.8314625,-1.154647,-6.9680014,4.5330324,1.633597,9.639952,0.7570178,1.0531217,-6.9791433,110.40862
1780724381436,0.47895002,2.67195,5.29005,-0.18493749,-0.1326875,0.8314625,-1.154647,-6.9680014,4.5330324,1.633597,9.639952,0.7570178,1.0531217,-6.9791433,110.40862
1780724381436,18.955952,7.5360003,7.22805,-0.18493749,-0.1326875,0.8314625,17.281773,-2.0961208,6.4600916,1.6741792,9.632121,0.7679589,1.0531217,-6.9791433,110.40862
1780724381441,-11.613001,15.504001,1.2760501,0.5589375,0.4175875,0.067375,-13.283997,5.8713636,0.5076265,1.6709952,9.632637,0.7684236,1.0531217,-6.9791433,110.40862
1780724381445,-7.2370505,14.92695,-8.02995,-0.3542,-0.1496,0.6708625,-8.914397,5.2930403,-8.76797,1.6773467,9.63391,0.7380197,1.0531217,-6.9791433,110.40862
1780724381451,8.184,11.7630005,4.0230002,-0.3542,-0.1496,0.6708625,6.4736185,2.1356268,3.275564,1.7103815,9.627374,0.74743634,1.0531217,-6.9791433,110.40862
1780724381467,-11.241,7.4740505,11.677951,0.668525,-0.1496,0.8017625,17.989367,7.1728563,-15.654583,1.9366336,9.589194,0.6835323,1.0531217,-6.9791433,110.40862
1780724381468,7.9630504,5.9869504,-1.17795,0.668525,-0.1496,0.8017625,17.989367,7.1728563,-15.654583,1.9366336,9.589194,0.6835323,1.0531217,-6.9791433,110.40862
1780724381468,19.926,16.76205,-14.97105,0.668525,-0.1496,0.8017625,17.989367,7.1728563,-15.654583,1.9366336,9.589194,0.6835323,1.0531217,-6.9791433,110.40862
1780724381476,-8.19705,17.562,-21.267,0.5930375,0.6623375,0.001375,-10.142126,7.972663,-21.92403,1.9450759,9.589337,0.6570295,1.0531217,-6.9791433,110.40862
