timestamp,ax,ay,az,gx,gy,gz,lin_ax,lin_ay,lin_az,grav_x,grav_y,grav_z,speed,lat,lon
1779784257951,-2.49495,10.65705,5.8170004,-0.1106875,0.0715,-0.1023,-3.6192904,1.1261215,3.8001575,1.1243402,9.530929,2.0168428,1.6888444,-6.8951519,109.4079112
1779784257957,-0.70605004,8.923051,2.1670501,0.073425,-0.0977625,0.0424875,-1.8175553,-0.6091671,0.14919472,1.1115053,9.532218,2.0178554,1.6888444,-6.8951519,109.4079112
1779784257964,5.4559503,9.385051,-1.9030501,-0.0840125,0.126775,-0.1310375,4.3162885,-0.14964676,-3.8932998,1.1396617,9.534698,1.9902498,1.6888444,-6.8951519,109.4079112
1779784363791,0.41400003,9.543,1.8030001,,,,,,,0.33760524,9.60305,1.959034,1.4588841,-6.8951272,109.4078054
1779784363791,-0.34905002,9.526051,3.1560001,,,,-1.6376553,1.2959499,0.3329661,0.33760524,9.60305,1.959034,1.4588841,-6.8951272,109.4078054
1779784363791,0.81705004,9.7560005,1.659,0.07645,0.0020625,-0.01485,-1.6376553,1.2959499,0.3329661,0.33760524,9.60305,1.959034,1.4588841,-6.8951272,109.4078054
1779784363791,0.79005,9.529051,2.1049502,0.0721875,-0.052249998,0.0639375,-1.6376553,1.2959499,0.3329661,0.33760524,9.60305,1.959034,1.4588841,-6.8951272,109.4078054
1779784363791,-1.30005,10.899,2.292,-0.033275,0.0169125,-0.0308,-1.6376553,1.2959499,0.3329661,0.33760524,9.60305,1.959034,1.4588841,-6.8951272,109.4078054
1779784363808,1.047,9.58395,0.55995005,-0.033275,0.0169125,-0.0308,-1.6376553,1.2959499,0.3329661,0.34052375,9.603014,1.9587159,1.4588841,-6.8951272,109.4078054
1779784363808,0.68700004,8.86995,2.9599502,-0.0023375,-0.028875,0.075625,0.3464763,-0.7330637,1.0012343,0.34052375,9.603014,1.9587159,1.4588841,-6.8951272,109.4078054
1779784363825,-1.113,10.798051,0.66300005,-0.0023375,-0.028875,0.075625,0.3464763,-0.7330637,1.0012343,0.34099224,9.601826,1.9644495,1.4588841,-6.8951272,109.4078054
1779784363827,0.69705003,8.68305,3.1710002,0.014712499,0.0562375,-0.020075,-1.4539922,1.1962252,-1.3014495,0.3361758,9.603396,1.9575931,1.4588841,-6.8951272,109.4078054
1779784363837,-0.15,9.67695,2.6149502,-0.0842875,-0.0044,0.0075625,0.36087424,-0.92034626,1.2134072,0.34199092,9.600194,1.9722365,1.4588841,-6.8951272,109.4078054
1779784363846,0.9289501,9.7900505,1.9009501,0.0721875,-0.1043625,0.0704,-0.49199092,0.07675648,0.64271367,0.34297174,9.601497,1.965715,1.4588841,-6.8951272,109.4078054
1779784363860,1.14705,9.732,0.91905004,-0.0193875,0.004125,-0.07865,0.5859783,0.18855381,-0.06476498,0.34557286,9.602088,1.9623698,1.4588841,-6.8951272,109.4078054
1779784363868,-2.0010002,10.354951,2.9310002,0.017875,0.0339625,-0.0647625,0.8014772,0.12991238,-1.0433197,0.3431994,9.603181,1.9574312,1.4588841,-6.8951272,109.4078054
1779784363878,0.95295006,9.591001,1.45605,-2.75E-4,-0.098037496,0.11715,0.6062213,-0.011530876,-0.5039437,0.34672874,9.602531,1.9599937,1.4588841,-6.8951272,109.4078054
1779784363898,1.4110501,8.899051,2.3779502,-0.0672375,-0.0501875,0.0661375,1.0609828,-0.7026377,0.4144231,0.35006723,9.601688,1.9635271,1.4588841,-6.8951272,109.4078054
1779784363908,-1.7590501,10.896001,0.57195,0.1104125,0.103125,-0.1137125,-2.1014888,1.2917595,-1.3803976,0.34243864,9.604241,1.9523475,1.4588841,-6.8951272,109.4078054
1779784363912,0.49995002,8.475,4.00395,-0.164175,-0.08305,0.0682,-2.1014888,1.2917595,-1.3803976,0.35023764,9.600249,1.9705145,1.4588841,-6.8951272,109.4078054
1779784363922,1.29795,9.73005,0.91005003,0.1370875,-0.0331375,0.0160875,0.14971238,-1.1252489,2.0334356,0.35530573,9.603249,1.9549347,1.4588841,-6.8951272,109.4078054
1779784363932,-0.47805002,10.254001,2.4190502,-0.066275,0.0573375,-0.0562375,0.9426443,0.12680149,-1.0448847,0.35530573,9.603249,1.9549347,1.4588841,-6.8951272,109.4078054
1779784363942,0.66105,9.91005,1.2570001,0.04235,-0.0075625,0.0235125,-0.8288368,0.65172005,0.45855153,0.35704497,9.603592,1.9529275,1.4588841,-6.8951272,109.4078054
1779784363952,-0.43005002,9.71805,2.2800002,-0.0204875,-0.02145,0.0501875,0.30400506,0.30645847,-0.6959274,0.34888476,9.602565,1.9594465,1.4588841,-6.8951272,109.4078054
1779784363963,0.08595,9.76095,1.6570501,-0.0108624995,0.0743875,-0.0488125,-0.7789348,0.11548519,0.32055366,0.34993806,9.603768,1.9533453,1.4588841,-6.8951272,109.4078054
1779784363976,0.55095005,9.21,2.6220002,-0.0023375,-0.042625,0.0565125,-0.26398808,0.15718174,-0.29629517,0.35408643,9.601605,1.9632092,1.4588841,-6.8951272,109.4078054
1779784363987,-0.15195,10.341001,0.771,0.00825,0.0105875,0.0138875,0.19686362,-0.39160538,0.65879107,0.35015082,9.604157,1.9513954,1.4588841,-6.8951272,109.4078054
1779784364002,0.30405003,9.088051,3.7909503,-0.047025,0.0094875,-0.0180125,-0.5021008,0.7368431,-1.1803954,0.3515864,9.599335,1.9747283,1.4588841,-6.8951272,109.4078054
1779784364009,0.39705002,10.080001,0.81600004,0.0636625,-0.0246125,-0.006325,-0.047536373,-0.5112839,1.816222,0.3531018,9.601915,1.9618747,1.4588841,-6.8951272,109.4078054
1779784364025,0.68700004,9.64605,1.5589501,-0.047025,-0.061875,0.0022,0.043948233,0.47808552,-1.1458747,0.35564622,9.601966,1.961158,1.4588841,-6.8951272,109.4078054
1779784364028,-1.4070001,10.501051,2.55795,-0.0290125,-0.0352,0.0075625,0.3313538,0.04408455,-0.40220797,0.35564622,9.601966,1.961158,1.4588841,-6.8951272,109.4078054
1779784364039,2.19105,9.129001,2.0400002,-0.0385,0.0297,-0.0488125,-1.7606609,0.8994055,0.5948589,0.38483518,9.600389,1.9633728,1.4588841,-6.8951272,109.4078054
1779784364048,0.26295,9.639001,1.53495,0.113575,-0.045925,0.044825,1.8062148,-0.47138786,0.07662737,0.38125822,9.601775,1.9572792,1.4588841,-6.8951272,109.4078054
1779784364165,-1.8649501,11.01105,-0.26505002,-0.0023375,-0.1054625,0.124575,-0.11830822,0.037225723,-0.4223292,0.3765715,9.601437,1.9598546,1.4588841,-6.8951272,109.4078054
1779784364165,1.1230501,7.86705,4.72305,-0.0023375,-0.1054625,0.124575,-0.11830822,0.037225723,-0.4223292,0.3765715,9.601437,1.9598546,1.4588841,-6.8951272,109.4078054
1779784364165,0.45495003,9.984,1.14405,-0.0023375,-0.1054625,0.124575,-0.11830822,0.037225723,-0.4223292,0.3765715,9.601437,1.9598546,1.4588841,-6.8951272,109.4078054
1779784364165,-0.62895006,10.23795,2.35905,-0.0023375,-0.1054625,0.124575,-0.11830822,0.037225723,-0.4223292,0.3765715,9.601437,1.9598546,1.4588841,-6.8951272,109.4078054
1779784364165,1.1040001,9.65295,1.9590001,-0.0023375,-0.1054625,0.124575,-0.11830822,0.037225723,-0.4223292,0.3765715,9.601437,1.9598546,1.4588841,-6.8951272,109.4078054
1779784364165,-0.44505003,10.17105,1.30005,-0.0023375,-0.1054625,0.124575,-0.11830822,0.037225723,-0.4223292,0.3765715,9.601437,1.9598546,1.4588841,-6.8951272,109.4078054
1779784364165,-0.23400001,9.75195,1.76205,-0.0023375,-0.1054625,0.124575,-0.11830822,0.037225723,-0.4223292,0.3765715,9.601437,1.9598546,1.4588841,-6.8951272,109.4078054
1779784364165,0.31395,9.03495,2.4190502,-0.0023375,-0.1054625,0.124575,-0.11830822,0.037225723,-0.4223292,0.3765715,9.601437,1.9598546,1.4588841,-6.8951272,109.4078054
1779784364165,-0.61695004,10.333051,0.89100003,-0.0023375,-0.1054625,0.124575,-0.11830822,0.037225723,-0.4223292,0.3765715,9.601437,1.9598546,1.4588841,-6.8951272,109.4078054
1779784364165,0.10305001,8.6310005,4.8349504,-0.0023375,-0.1054625,0.124575,-0.11830822,0.037225723,-0.4223292,0.3765715,9.601437,1.9598546,1.4588841,-6.8951272,109.4078054
1779784364165,0.83295006,10.10805,0.22995001,-0.0023375,-0.1054625,0.124575,-0.11830822,0.037225723,-0.4223292,0.3765715,9.601437,1.9598546,1.4588841,-6.8951272,109.4078054
1779784364178,0.21795002,9.75405,1.9039501,-0.013062499,-0.0873125,0.058575,-0.16031632,0.15536785,-0.06902468,0.37826633,9.598682,1.9729748,1.4588841,-6.8951272,109.4078054
1779784364179,-0.51900005,10.180051,2.256,-0.031075,0.0191125,-0.1148125,-0.16031632,0.15536785,-0.06902468,0.37183806,9.599023,1.9725282,1.4588841,-6.8951272,109.4078054
1779784364190,-0.40395,9.783,1.8370501,-2.75E-4,-0.0044,0.0363,-0.77190274,0.18360233,-0.13438976,0.36795273,9.599398,1.9714398,1.4588841,-6.8951272,109.4078054
1779784364200,0.91005003,9.555,2.18595,-0.09075,-0.0320375,-0.018975,-0.77190274,0.18360233,-0.13438976,0.378973,9.597814,1.9770612,1.4588841,-6.8951272,109.4078054
1779784364214,-0.11595,9.660001,1.2589501,-0.0193875,-0.02035,0.0713625,0.531077,-0.0428133,0.20888889,0.3725839,9.600784,1.9637995,1.4588841,-6.8951272,109.4078054
1779784364220,-1.2900001,10.012951,1.60395,-0.19813749,-0.1054625,0.1150875,-0.4885339,0.0592165,-0.70484936,0.36286184,9.601181,1.9636791,1.4588841,-6.8951272,109.4078054
1779784364235,0.591,8.42895,3.6070502,0.122099996,0.0510125,0.0033,-1.652862,0.41176987,-0.35972905,0.36852235,9.59837,1.9763323,1.4588841,-6.8951272,109.4078054
1779784364240,0.31800002,10.302,1.7170501,-0.050325,0.038225,0.026675,0.22247767,-1.1694193,1.6307179,0.37204236,9.599478,1.970276,1.4588841,-6.8951272,109.4078054
1779784364250,0.94095004,9.550051,1.1920501,0.0625625,-0.0704,0.1353,-0.05404234,0.7025223,-0.25322592,0.3828142,9.601131,1.9601363,1.4588841,-6.8951272,109.4078054
1779784364264,-1.503,10.41495,3.18495,0.0444125,-0.1342,0.1395625,0.55813587,-0.051080704,-0.7680862,0.3828142,9.601131,1.9601363,1.4588841,-6.8951272,109.4078054
1779784364271,0.91695005,9.507001,0.50295,0.0955625,-0.0149875,0.0394625,-1.8747475,0.81485844,1.2176089,0.3876482,9.603458,1.9477468,1.4588841,-6.8951272,109.4078054
1779784364280,-0.009000001,9.352051,2.9650502,-0.1439625,-0.078925,0.1331,0.5293019,-0.09645748,-1.4447968,0.3827198,9.596618,1.9821371,1.4588841,-6.8951272,109.4078054
1779784364296,-0.78195006,10.1320505,1.044,0.1434125,0.095699996,-0.0573375,-0.39171982,-0.24456692,0.98291314,0.36893502,9.600376,1.9664807,1.4588841,-6.8951272,109.4078054
1779784364301,0.109950006,9.184051,3.0250502,-0.1577125,-0.043725,0.044825,-1.1508851,0.5316744,-0.9224807,0.37492228,9.594863,1.9920968,1.4588841,-6.8951272,109.4078054
1779784364310,0.33795002,9.550051,2.32995,0.10725,-0.078925,0.077825,-0.26497227,-0.41081238,1.0329534,0.37850833,9.594546,1.9929403,1.4588841,-6.8951272,109.4078054
1779784364327,0.16800001,9.984,1.56105,-0.0587125,0.07975,-9.625E-4,-0.04055831,-0.044495583,0.3370098,0.38063452,9.5953665,1.9885768,1.4588841,-6.8951272,109.4078054
1779784364330,0.80895007,9.126,1.33395,0.043449998,0.0732875,0.0809875,-0.2126345,0.38863373,-0.4275267,0.39101475,9.595923,1.9838767,1.4588841,-6.8951272,109.4078054
1779784364341,-1.9990501,10.70505,3.693,-0.02255,0.0328625,0.1288375,0.4179353,-0.46992302,-0.64992666,0.38335955,9.594564,1.991925,1.4588841,-6.8951272,109.4078054
1779784364352,2.50305,9.13095,1.2550501,0.0039875,0.004125,0.0628375,-2.3824096,1.110486,1.7010751,0.42062283,9.595229,1.9811785,1.4588841,-6.8951272,109.4078054
1779784364365,0.78300005,9.34395,2.2050002,0.14135,0.0275,-0.053075,2.0824273,-0.46427917,-0.72612846,0.42669484,9.593657,1.9874825,1.4588841,-6.8951272,109.4078054
1779784364372,-2.4090002,11.208,0.15795001,0.0477125,0.1276,0.0044,0.3563052,-0.24970627,0.21751761,0.4152157,9.597195,1.9727801,1.4588841,-6.8951272,109.4078054
1779784364381,1.2910501,8.6980505,2.91405,-0.104499996,-0.042625,0.0884125,0.8546273,-0.8941746,0.9217721,0.43642277,9.592225,1.992278,1.4588841,-6.8951272,109.4078054
1779784364391,1.28805,8.829,2.4139502,0.0785125,-0.0416625,0.05115,0.8546273,-0.8941746,0.9217721,0.4480141,9.5917845,1.9918232,1.4588841,-6.8951272,109.4078054
1779784364401,-1.422,10.840951,2.6149502,-0.0012375,0.0243375,-0.01155,0.8400359,-0.762784,0.422127,0.44236267,9.591514,1.994384,1.4588841,-6.8951272,109.4078054
1779784364411,2.1000001,9.4470005,0.55995005,-0.048125,-0.028875,0.029975,-1.8643627,1.2494373,0.6205661,0.4797101,9.594465,1.9714276,1.4588841,-6.8951272,109.4078054
1779784364423,-1.02405,9.88605,2.8470001,0.04235,-0.08305,0.16293749,1.62029,-0.14746475,-1.4114776,0.47145316,9.59351,1.9780543,1.4588841,-6.8951272,109.4078054
1779784364436,-0.016050002,10.302,0.21000001,-0.013062499,0.15413749,-0.0308,-1.4955032,0.29254055,0.86894584,0.48131227,9.596008,1.9635025,1.4588841,-6.8951272,109.4078054
1779784364444,0.97200006,8.691,2.64105,0.0242,0.1403875,-0.01485,0.48577166,-0.9034052,0.6709336,0.4862284,9.594405,1.9701165,1.4588841,-6.8951272,109.4078054
1779784364463,-1.5010501,10.1970005,2.4810002,-0.0119624995,-0.0639375,0.208725,0.48577166,-0.9034052,0.6709336,0.4803528,9.594762,1.9698306,1.4588841,-6.8951272,109.4078054
1779784364464,0.675,9.342,2.529,-0.054449998,0.07865,0.077825,-1.9814029,0.60223866,0.51116955,0.49170128,9.590795,1.9862679,1.4588841,-6.8951272,109.4078054
1779784364474,0.79305005,9.354,3.04605,0.129525,0.0903375,0.098037496,0.18329874,-0.24879456,0.5427321,0.5083982,9.585676,2.006676,1.4588841,-6.8951272,109.4078054
1779784364484,1.30305,10.2640505,0.00705,-0.0523875,-0.0160875,0.092675,0.28465188,-0.2316761,1.0393741,0.5229776,9.589249,1.985743,1.4588841,-6.8951272,109.4078054
1779784364495,-0.054,9.691951,1.9920001,-0.0512875,-0.0044,0.0149875,0.78007245,0.6748018,-1.978693,0.5229776,9.589249,1.985743,1.4588841,-6.8951272,109.4078054
1779784364504,-0.53295004,9.831,3.3019502,8.25E-4,0.0020625,0.0884125,-0.5657916,0.102968216,0.0020561218,0.5107143,9.586451,2.0023837,1.4588841,-6.8951272,109.4078054
1779784364514,1.5970501,9.655951,1.3909501,-0.032175,0.045649998,0.010725,-1.0436643,0.24454975,1.2995665,0.54291886,9.587895,1.9869308,1.4588841,-6.8951272,109.4078054
1779784364526,0.61095005,9.06705,3.2310002,0.0763125,-0.0022,0.078925,1.0541313,0.06805515,-0.59598076,0.551127,9.582167,2.012144,1.4588841,-6.8951272,109.4078054
1779784364535,-0.56700003,10.9150505,-0.47400004,-0.0268125,0.0254375,0.1214125,0.059823036,-0.5151167,1.2188561,0.5489724,9.587352,1.9878882,1.4588841,-6.8951272,109.4078054
1779784364545,0.82095003,8.679001,3.1279502,-0.065175,0.0977625,0.061875,-1.1159725,1.3276987,-2.4618883,0.5489724,9.587352,1.9878882,1.4588841,-6.8951272,109.4078054
1779784364556,0.35700002,9.62895,2.217,0.1029875,-0.0309375,0.1288375,0.2609421,-0.90217113,1.1135199,0.5624115,9.582707,2.0064409,1.4588841,-6.8951272,109.4078054
1779784364565,0.43605003,9.979051,1.8199501,-0.1076625,-0.0224125,0.02035,-0.20541146,0.046242714,0.21055913,0.5636004,9.581404,2.0123289,1.4588841,-6.8951272,109.4078054
1779784364576,0.9480001,9.273001,2.04495,0.049775,0.01265,-0.022275,0.37191778,-0.30876064,0.03787017,0.5636004,9.581404,2.0123289,1.4588841,-6.8951272,109.4078054
1779784364586,-1.1920501,10.54395,2.40405,0.001925,-0.043725,0.140525,0.37191778,-0.30876064,0.03787017,0.5707193,9.58112,2.0116706,1.4588841,-6.8951272,109.4078054
1779784364596,0.72795004,9.76605,1.07295,-0.047025,0.0658625,0.0138875,-1.7627695,0.96283054,0.39237952,0.5817846,9.586169,1.9842572,1.4588841,-6.8951272,109.4078054
1779784364608,1.28805,8.78205,2.93805,0.0518375,0.0562375,0.11825,0.14616543,0.1798811,-0.9113072,0.60139763,9.581634,2.0002532,1.4588841,-6.8951272,109.4078054
1779784364615,-0.933,10.635,0.21000001,-0.0587125,0.0968,0.1480875,0.6866524,-0.79958344,0.93779683,0.59253424,9.586564,1.9791608,1.4588841,-6.8951272,109.4078054
1779784364626,-0.006,8.734051,4.5259504,-0.0290125,0.1637625,0.1395625,-0.59320134,-0.8331394,2.453639,0.58720136,9.56719,2.0723114,1.4588841,-6.8951272,109.4078054
1779784364636,1.7890501,8.923051,2.0040002,0.1838375,0.0308,0.1395625,-0.59320134,-0.8331394,2.453639,0.6125141,9.5677395,2.0624266,1.4588841,-6.8951272,109.4078054
1779784364646,0.052950002,10.930051,1.60695,-0.015125,0.0243375,0.13213749,1.1765361,-0.6446886,-0.05842638,0.61263007,9.568131,2.0605683,1.4588841,-6.8951272,109.4078054
1779784364656,1.899,9.45495,0.768,-0.0757625,0.133925,-0.055275,-0.55968004,1.3619194,-0.4536183,0.6466598,9.571351,2.0350597,1.4588841,-6.8951272,109.4078054
1779784364666,-1.3260001,10.017,2.8519502,0.0529375,-0.0374,0.1714625,-1.962405,0.4467287,0.80860186,0.63640493,9.5702715,2.0433483,1.4588841,-6.8951272,109.4078054
1779784364676,0.48600003,10.156051,0.162,-0.1183875,0.039325,0.0671,-1.962405,0.4467287,0.80860186,0.6418708,9.5756035,2.0164826,1.4588841,-6.8951272,109.4078054
1779784364687,1.29795,8.37405,3.7450502,0.164725,0.1296625,0.08415,0.6392988,-1.1948833,1.7024782,0.65865123,9.5689335,2.042572,1.4588841,-6.8951272,109.4078054
1779784364697,-1.149,10.39605,0.80205005,-0.0842875,0.0605,0.1885125,0.6392988,-1.1948833,1.7024782,0.6508736,9.573489,2.0236225,1.4588841,-6.8951272,109.4078054
1779784364707,-0.36105,9.568951,4.3780503,0.0518375,0.103125,0.21395,-1.7998736,0.82256126,-1.2215724,0.65418434,9.566981,2.0531216,1.4588841,-6.8951272,109.4078054
1779784364716,3.4459503,8.86095,1.3290001,0.0210375,0.1478125,0.1117875,-1.0152344,0.0019693375,2.3249288,0.7190867,9.566198,2.0349827,1.4588841,-6.8951272,109.4078054
1779784364726,0.09105001,10.71,1.365,0.067925,0.0413875,0.126775,2.7268636,-0.7052479,-0.70598257,0.716661,9.567677,2.0288808,1.4588841,-6.8951272,109.4078054
1779784364736,0.31395,10.10595,0.591,-0.16733749,0.0616,0.0479875,-0.62561095,1.1423235,-0.6638808,0.71868926,9.5713,2.0109956,1.4588841,-6.8951272,109.4078054
1779784364746,0.35700002,9.27,3.183,0.1029875,-0.045925,0.1150875,-0.35700223,-0.2912979,1.1233425,0.71400225,9.561298,2.0596576,1.4588841,-6.8951272,109.4078054
1779784364757,1.3290001,10.305,0.65595,-0.1769625,0.0180125,0.0149875,-0.35700223,-0.2912979,1.1233425,0.72568595,9.563275,2.0463486,1.4588841,-6.8951272,109.4078054
1779784364767,1.38705,8.688001,4.1070004,0.2402125,-0.012925,0.0055,0.60331416,0.74172497,-1.3903985,0.7493533,9.550261,2.097952,1.4588841,-6.8951272,109.4078054
1779784364778,-0.21900001,11.071051,-0.88305,-0.2322375,-0.01925,0.0671,0.63769674,-0.86225986,2.0090485,0.7464622,9.555006,2.0772717,1.4588841,-6.8951272,109.4078054
1779784364787,0.26295,8.772,5.4910502,0.1838375,-0.0416625,0.1034,-0.9654622,1.5160446,-2.9603217,0.74847764,9.54454,2.1241357,1.4588841,-6.8951272,109.4078054
1779784364797,3.3979502,9.93795,-1.542,-0.1417625,-0.0075625,0.011825,-0.48552763,-0.7725401,3.3669145,0.77641255,9.551729,2.081354,1.4588841,-6.8951272,109.4078054
1779784364810,-0.49995002,9.73005,3.5299501,0.1115125,-0.125675,0.0565125,2.6215377,0.38622093,-3.623354,0.7573574,9.547977,2.1054513,1.4588841,-6.8951272,109.4078054
1779784364818,1.32,10.50405,-0.28695002,-0.1354375,-0.0468875,-0.0977625,-1.2573074,0.18207264,1.4244988,0.7633251,9.553794,2.0767162,1.4588841,-6.8951272,109.4078054
1779784364828,1.0819501,8.77005,3.52305,0.067925,-0.2033625,0.0075625,0.55667496,0.95025635,-2.3636663,0.7722958,9.545882,2.1095273,1.4588841,-6.8951272,109.4078054
1779784364836,0.38505003,10.453051,2.29395,0.098725,-0.010725,-0.07755,0.3096543,-0.7758322,1.4135227,0.7679025,9.546644,2.1076756,1.4588841,-6.8951272,109.4078054
1779784364845,2.22495,8.928,2.05005,0.050875,-0.0798875,-0.0328625,-0.38285246,0.9064064,0.18627453,0.7901845,9.544575,2.1088119,1.4588841,-6.8951272,109.4078054
1779784364857,-1.1920501,10.48005,1.91805,-0.114125,-0.076725,0.028875,1.4347656,-0.6165743,-0.058761835,0.767434,9.54807,2.101386,1.4588841,-6.8951272,109.4078054
1779784364865,0.59400004,8.784,3.7069502,0.097625,-0.0363,0.0650375,-1.9594841,0.93198013,-0.18333602,0.76951724,9.540182,2.136161,1.4588841,-6.8951272,109.4078054
1779784364877,1.8750001,9.868951,0.08805001,-0.131175,-0.011825,-0.037125,-0.1755172,-0.7561817,1.5707891,0.7921967,9.548648,2.089536,1.4588841,-6.8951272,109.4078054
1779784364887,-0.41805002,9.117001,2.94105,0.10945,-0.1544125,0.108625,1.0828035,0.32030296,-2.0014858,0.7682012,9.5456915,2.1118789,1.4588841,-6.8951272,109.4078054
1779784364897,-0.303,10.69995,0.354,-0.1577125,-0.0798875,0.0735625,-1.1862512,-0.4286909,0.8291712,0.75774145,9.551225,2.0905325,1.4588841,-6.8951272,109.4078054
1779784364906,0.615,9.01395,2.943,0.0317625,-0.15235,0.0873125,-1.0607414,1.1487255,-1.7365326,0.76366585,9.545847,2.1128223,1.4588841,-6.8951272,109.4078054
1779784364916,1.0009501,9.76605,2.66805,-0.1067,-0.077825,0.0383625,-0.14866585,-0.5318966,0.8301778,0.7677324,9.544019,2.1195974,1.4588841,-6.8951272,109.4078054
1779784364928,0.29895002,10.165951,1.7839501,0.148775,0.054175,-0.0680625,0.23321772,0.2220316,0.5484526,0.7641285,9.545965,2.1121209,1.4588841,-6.8951272,109.4078054
1779784364936,-0.022950001,9.471001,2.42805,-0.19813749,-0.009625,0.0490875,-0.4651785,0.6199856,-0.32817078,0.7444591,9.543893,2.1284459,1.4588841,-6.8951272,109.4078054
1779784364946,0.62505,9.370951,3.1420503,0.180675,-0.011825,0.1480875,-0.7674091,-0.07289219,0.29960418,0.7473373,9.538165,2.152969,1.4588841,-6.8951272,109.4078054
1779784364961,1.5469501,9.571951,0.045,-0.15345,0.14355,0.05335,-0.12228727,-0.1672144,0.9890814,0.7732117,9.547499,2.10186,1.4588841,-6.8951272,109.4078054
1779784364966,0.453,8.829,3.0990002,0.10945,0.0562375,0.1544125,0.7737384,0.02445221,-2.05686,0.77418786,9.543173,2.1210551,1.4588841,-6.8951272,109.4078054
1779784364983,0.14595,10.975051,0.84000003,-0.0853875,0.088275,0.0086624995,-0.32118785,-0.71417236,0.9779451,0.7724752,9.546274,2.1076832,1.4588841,-6.8951272,109.4078054
1779784364992,1.19505,9.19095,2.5429502,-0.0012375,-0.02145,0.0991375,-0.62652516,1.4287767,-1.2676831,0.79239047,9.541193,2.1232371,1.4588841,-6.8951272,109.4078054
1779784364999,1.2859501,9.988951,2.70405,-0.0523875,-0.010725,0.0969375,0.40265954,-0.3502426,0.41971302,0.79908293,9.539338,2.1290596,1.4588841,-6.8951272,109.4078054
1779784365011,0.54405004,10.43595,0.28005,0.07535,0.0818125,-0.04675,0.48686713,0.44961262,0.5749905,0.7951573,9.545815,2.10132,1.4588841,-6.8951272,109.4078054
1779784365019,-0.43695003,9.495001,3.2640002,-0.1588125,-0.077825,0.0704,-0.25110728,0.8901348,-1.82127,0.7791215,9.539094,2.137535,1.4588841,-6.8951272,109.4078054
1779784365036,1.8060001,8.286,2.36595,0.1945625,-0.0895125,0.043725,-1.2160716,-0.044093132,1.1264651,0.78834176,9.538813,2.135407,1.4588841,-6.8951272,109.4078054
1779784365045,0.29700002,10.24695,1.4059501,-0.12265,0.021175,-0.0680625,-0.48495933,0.7053642,-0.71939445,0.78195935,9.541586,2.1253445,1.4588841,-6.8951272,109.4078054
1779784365050,1.4490001,8.98995,1.7740501,0.10835,-0.0704,-9.625E-4,-0.48495933,0.7053642,-0.71939445,0.7998069,9.542254,2.11568,1.4588841,-6.8951272,109.4078054
1779784365060,0.079050004,10.474951,1.6140001,-0.1172875,-0.1054625,0.0798875,0.6491932,-0.55230427,-0.34162986,0.7914888,9.543073,2.1151195,1.4588841,-6.8951272,109.4078054
1779784365069,0.81900007,9.94305,2.02605,0.0529375,0.0488125,-0.0413875,-0.7124388,0.9318781,-0.5011194,0.7930778,9.544362,2.108692,1.4588841,-6.8951272,109.4078054
1779784365079,2.2030501,9.81105,1.968,-0.0342375,0.01375,0.0246125,0.025922239,0.39868832,-0.08264184,0.8194141,9.541626,2.1110015,1.4588841,-6.8951272,109.4078054
1779784365094,-0.44205,10.08195,1.6710001,-0.0407,-0.0490875,0.0671,1.383636,0.26942444,-0.14300144,0.7964535,9.545928,2.1003175,1.4588841,-6.8951272,109.4078054
1779784365101,-0.492,9.44505,3.561,-0.0407,-0.0490875,0.0671,1.383636,0.26942444,-0.14300144,0.77686614,9.540632,2.131483,1.4588841,-6.8951272,109.4078054
1779784365110,2.3760002,8.913,0.73005,0.0242,-0.0075625,0.0224125,-1.2688662,-0.09558201,1.429517,0.8018857,9.54335,2.1099346,1.4588841,-6.8951272,109.4078054
1779784365121,0.36195,9.64395,2.8189502,-0.031075,-0.0820875,0.0257125,1.5741144,-0.6303501,-1.3798845,0.79136753,9.539812,2.1298196,1.4588841,-6.8951272,109.4078054
1779784365131,1.1020501,9.402,1.3770001,-0.0290125,-0.0053625,-0.089237496,-0.42941752,0.104138374,0.68913054,0.7996426,9.543046,2.1121624,1.4588841,-6.8951272,109.4078054
1779784365141,-0.48795003,10.45995,2.6170502,-0.0182875,-0.1373625,0.1331,0.30240744,-0.14104557,-0.73516226,0.7945915,9.542265,2.117597,1.4588841,-6.8951272,109.4078054
1779784365151,2.26095,9.28905,2.7180002,0.0050875,0.0807125,-0.0935,-1.2825415,0.9176855,0.49945307,0.83159024,9.535373,2.1343682,1.4588841,-6.8951272,109.4078054
1779784365160,1.5780001,9.997951,1.2430501,0.1211375,-0.0022,0.0012375,1.4293599,-0.24632263,0.583632,0.8482719,9.538559,2.1134682,1.4588841,-6.8951272,109.4078054
1779784365171,-1.4269501,10.444051,1.386,-0.2173875,-0.02035,0.1065625,-2.2514346,0.90351677,-0.7279643,0.8244845,9.540534,2.1139643,1.4588841,-6.8951272,109.4078054
1779784365181,0.93600005,8.331,4.5409503,0.2094125,0.1137125,0.0671,-2.2514346,0.90351677,-0.7279643,0.83486474,9.530063,2.1566906,1.4588841,-6.8951272,109.4078054
1779784365192,2.8950002,9.543,-0.31800002,-0.1588125,0.124437496,-0.0180125,0.10113531,-1.1990623,2.3842597,0.88647044,9.537884,2.100797,1.4588841,-6.8951272,109.4078054
1779784365200,-0.68595004,9.531,3.1300502,0.116875,-0.0798875,0.19167499,2.0085297,0.0051164627,-2.418797,0.85778445,9.536178,2.120359,1.4588841,-6.8951272,109.4078054
1779784365211,1.13505,10.53705,0.58395004,-0.05775,0.1744875,-0.0573375,-1.5437346,-0.005177498,1.0096912,0.8575509,9.539898,2.103654,1.4588841,-6.8951272,109.4078054
1779784365221,1.8780001,9.397051,1.8370501,0.0221375,0.0350625,-0.003025,0.27749914,0.9971523,-1.5197039,0.89762837,9.537255,2.0989065,1.4588841,-6.8951272,109.4078054
1779784365237,0.66795003,10.446,2.9530501,-0.0449625,-0.1544125,0.1607375,0.9803718,-0.14020443,-0.26185644,0.89335054,9.537241,2.100805,1.4588841,-6.8951272,109.4078054
1779784365241,1.5829501,9.736951,0.52695,-0.104499996,0.0328625,-0.0243375,0.6690075,0.19164944,-1.5278853,0.91394264,9.545301,2.0548353,1.4588841,-6.8951272,109.4078054
1779784365248,-0.804,9.534,4.3320003,-0.1502875,-0.0969375,0.0724625,0.6690075,0.19164944,-1.5278853,0.89560795,9.540034,2.087108,1.4588841,-6.8951272,109.4078054
1779784365267,1.9090501,9.00195,0.98595005,0.20515,-0.0746625,0.0809875,-1.699608,-0.0060338974,2.2448924,0.9106056,9.542949,2.0672045,1.4588841,-6.8951272,109.4078054
1779784365270,0.89295006,9.571951,2.12595,-0.1747625,0.170225,-0.168025,0.9984445,-0.54099846,-1.0812545,0.90746087,9.541635,2.0746372,1.4588841,-6.8951272,109.4078054
1779784365280,0.93405,9.217051,2.6460001,0.1678875,-0.0798875,0.1054625,-0.01451081,0.030316353,0.051312923,0.91268563,9.539027,2.0843093,1.4588841,-6.8951272,109.4078054
1779784365291,0.64695,10.69305,0.483,-0.0831875,0.0094875,0.0650375,0.02136439,-0.32197666,0.5616908,0.905738,9.543288,2.0677779,1.4588841,-6.8951272,109.4078054
1779784365302,0.98700005,9.43995,4.34205,0.1274625,-0.0298375,0.011825,-0.258788,1.1497622,-1.5847778,0.90667295,9.536051,2.1004946,1.4588841,-6.8951272,109.4078054
1779784365311,2.56695,10.092,-0.11895001,0.097625,-0.11715,0.127875,0.08032709,-0.09610081,2.2415555,0.9241449,9.542447,2.0634956,1.4588841,-6.8951272,109.4078054
1779784365320,-1.8379501,10.245001,2.6149502,-0.1970375,0.07755,-0.095699996,1.6428051,0.5495529,-2.1824455,0.8929902,9.542909,2.0750568,1.4588841,-6.8951272,109.4078054
1779784365336,0.27105,8.223001,4.485,-0.1439625,-0.0341,-0.0328625,-2.7309403,0.7020922,0.5398934,0.89276135,9.534956,2.1113982,1.4588841,-6.8951272,109.4078054
1779784365340,3.04605,9.696,-0.73200005,-0.1439625,-0.0341,-0.0328625,-0.6217114,-1.3119555,2.373602,0.92964554,9.542786,2.05946,1.4588841,-6.8951272,109.4078054
1779784365349,-0.85200006,9.40695,3.2020502,0.113575,-0.0565125,0.058575,2.1164045,0.15321445,-2.79146,0.92964554,9.542786,2.05946,1.4588841,-6.8951272,109.4078054
1779784365362,0.76095,10.507951,0.094950005,-0.0396,0.1329625,-0.0966625,-1.7336494,-0.1335535,1.1111505,0.8800842,9.546678,2.0631986,1.4588841,-6.8951272,109.4078054
1779784365369,1.40295,9.694051,1.5850501,-0.0097624995,-0.092675,0.011825,-0.11913419,0.9612732,-1.9682486,0.89477473,9.5471945,2.0544765,1.4588841,-6.8951272,109.4078054
1779784365385,0.62505,9.89295,3.4630501,0.0774125,0.1276,-0.216975,0.5081753,0.14685631,-0.4694264,0.886433,9.54433,2.0713258,1.4588841,-6.8951272,109.4078054
1779784365395,0.42105,10.306951,0.29700002,0.0774125,0.1276,-0.216975,-0.261383,0.3486204,1.3917243,0.8714339,9.551221,2.045761,1.4588841,-6.8951272,109.4078054
1779784365400,-0.97605,9.150001,5.22795,-0.127875,-0.1362625,0.0479875,-0.4503839,0.7557297,-1.748761,0.85779846,9.544336,2.0833197,1.4588841,-6.8951272,109.4078054
1779784365420,2.59095,9.426001,-0.45195,0.2190375,-0.190575,0.0661375,-1.8338485,-0.39433575,3.1446304,0.9278055,9.559928,1.9792274,1.4588841,-6.8951272,109.4078054
1779784365423,0.44505003,9.871051,2.2770002,-0.1662375,0.053075,-0.215875,1.6631446,-0.13392735,-2.4311774,0.9091961,9.559142,1.9916257,1.4588841,-6.8951272,109.4078054
1779784365436,1.04205,9.61005,1.07295,0.163625,-0.141625,-0.07865,-0.46414605,0.31190872,0.28537452,0.9091961,9.559142,1.9916257,1.4588841,-6.8951272,109.4078054
1779784365440,0.201,10.300051,1.0200001,-0.1662375,-0.2182125,0.0490875,0.12704587,0.044849396,-0.88667023,0.9007839,9.568458,1.9502848,1.4588841,-6.8951272,109.4078054
1779784365451,0.453,9.498,3.6019502,0.0264,0.045649998,-0.2116125,-0.6997839,0.73159313,-0.93028474,0.88970286,9.563247,1.9806911,1.4588841,-6.8951272,109.4078054
1779784365461,2.388,9.91905,0.94995004,0.07425,-0.1117875,0.0224125,-0.43670285,-0.06524658,1.6212591,0.91290456,9.565018,1.9614894,1.4588841,-6.8951272,109.4078054
1779784365471,-1.0510501,10.003051,2.1100502,-0.1502875,-0.0671,-0.0573375,1.4750955,0.35403252,-1.0115395,0.8727806,9.5679655,1.9653678,1.4588841,-6.8951272,109.4078054
1779784365487,-1.1340001,9.27705,4.63605,-0.0534875,-0.069299996,-0.0328625,-1.9238307,0.4350853,0.1446824,0.84880936,9.563296,1.9983202,1.4588841,-6.8951272,109.4078054
1779784365495,3.3979502,9.249001,-1.2210001,-0.0534875,-0.069299996,-0.0328625,-1.9828094,-0.2862463,2.6377301,0.92094815,9.574496,1.9108331,1.4588841,-6.8951272,109.4078054
1779784365501,-0.65805006,9.46905,3.561,-0.015125,-0.1362625,0.0033,2.4770021,-0.32549572,-3.131833,0.8855235,9.570522,1.947143,1.4588841,-6.8951272,109.4078054
1779784365511,0.43800002,10.09605,1.0699501,-0.02145,0.01265,-0.1552375,-1.5435736,-0.1014719,1.6138572,0.8778648,9.575317,1.9269314,1.4588841,-6.8951272,109.4078054
1779784365522,1.1209501,9.580951,1.5660001,-0.0396,-0.159775,0.0746625,-0.43986475,0.5207329,-0.8569813,0.88816875,9.57602,1.9186908,1.4588841,-6.8951272,109.4078054
1779784365537,0.66300005,9.423,4.3230004,0.1348875,0.0308,-0.0754875,0.23278135,0.004930496,-0.3526907,0.88045365,9.570013,1.9519378,1.4588841,-6.8951272,109.4078054
1779784365543,1.2,10.51095,-0.57705003,0.1348875,0.0308,-0.0754875,0.31490326,0.93435097,-2.4942744,0.8850968,9.576599,1.9172243,1.4588841,-6.8951272,109.4078054
1779784365551,-0.94305,9.547951,4.10895,-0.25135,-0.0352,0.0490875,0.31490326,0.93435097,-2.4942744,0.86231625,9.57075,1.9564135,1.4588841,-6.8951272,109.4078054
1779784365567,1.6170001,8.7960005,1.9849501,-0.1758625,0.14465,-0.053075,-1.8053663,-0.022799492,2.1525366,0.875202,9.570838,1.9502532,1.4588841,-6.8951272,109.4078054
1779784365573,0.70395005,10.02,1.2709501,-0.1758625,0.14465,-0.053075,0.7417981,-0.7748375,0.034696817,0.8714298,9.572956,1.9415216,1.4588841,-6.8951272,109.4078054
1779784365581,0.462,9.064051,2.5140002,0.1232,-0.026675,0.140525,-0.16747975,0.44704437,-0.67057157,0.86984193,9.571186,1.9509372,1.4588841,-6.8951272,109.4078054
1779784365595,0.37800002,10.777051,1.6500001,-0.054449998,0.1148125,-0.01155,-0.40784192,-0.5071354,0.563063,0.8679627,9.571684,1.9493297,1.4588841,-6.8951272,109.4078054
1779784365602,1.31505,9.40695,1.5079501,0.00935,0.0627,-0.005225,-0.4899627,1.2053671,-0.29932964,0.878684,9.572539,1.940304,1.4588841,-6.8951272,109.4078054
1779784365620,0.81705004,9.964951,2.3710501,-0.032175,0.1276,-0.117975,0.43636602,-0.16558933,-0.43235397,0.8765087,9.571181,1.9479712,1.4588841,-6.8951272,109.4078054
1779784365622,0.07395,10.029,0.52905005,-0.032175,0.1276,-0.117975,-0.059458673,0.39376926,0.4230789,0.856063,9.579407,1.9163837,1.4588841,-6.8951272,109.4078054
1779784365636,-0.43995002,8.913,4.4419503,-0.0279125,-0.0724625,0.0246125,-0.782113,0.44959354,-1.3873336,0.8308152,9.568571,1.9805536,1.4588841,-6.8951272,109.4078054
1779784365647,1.674,9.459001,1.3069501,-0.02475,-0.0257125,0.0320375,0.82042533,-0.110982895,-0.6570271,0.8535747,9.5699835,1.9639772,1.4588841,-6.8951272,109.4078054
1779784365655,0.28995,9.462001,2.74005,-0.0204875,-0.0331375,-0.071225,0.82042533,-0.110982895,-0.6570271,0.83157766,9.565752,1.9938054,1.4588841,-6.8951272,109.4078054
1779784365665,1.3429501,9.1380005,1.2930001,0.0210375,-0.0138875,-0.0308,-0.54162765,-0.10375118,0.74624467,0.8425775,9.567255,1.9819425,1.4588841,-6.8951272,109.4078054
1779784365675,-1.01205,10.891951,3.5059502,-0.0023375,-0.028875,0.0246125,0.5003726,-0.42925453,-0.68894243,0.82900286,9.566348,1.9920144,1.4588841,-6.8951272,109.4078054
1779784365685,2.7280502,8.655001,1.52505,-0.0055,0.054175,-0.0595375,-1.8410529,1.3256025,1.5139358,0.85562956,9.565197,1.9862808,1.4588841,-6.8951272,109.4078054
1779784365704,0.141,9.744,2.5240502,-0.0991375,0.0818125,-0.003025,1.8724207,-0.9101963,-0.46123075,0.8381044,9.564928,1.9950212,1.4588841,-6.8951272,109.4078054
1779784365708,-1.26795,10.5730505,0.045,-0.0991375,0.0818125,-0.003025,-0.69710445,0.17907238,0.529029,0.813188,9.571735,1.9725615,1.4588841,-6.8951272,109.4078054
1779784365715,1.176,8.464951,4.4209504,0.0210375,-0.010725,0.026675,-2.0811381,1.0013151,-1.9275615,0.83016926,9.557019,2.0358284,1.4588841,-6.8951272,109.4078054
1779784365738,1.4269501,9.378,0.675,0.083875,-0.108625,0.0565125,0.34583074,-1.0920687,2.385122,0.8157783,9.563391,2.0115824,1.4588841,-6.8951272,109.4078054
1779784365738,-0.92805004,10.374001,2.39205,-0.0726,-0.0298375,0.045925,-1.7438283,0.8106098,0.38046765,0.8157783,9.563391,2.0115824,1.4588841,-6.8951272,109.4078054
1779784365747,2.148,8.986951,1.6380001,0.0253,-0.0650375,-0.1392875,-1.7438283,0.8106098,0.38046765,0.8416753,9.563292,2.0013597,1.4588841,-6.8951272,109.4078054
1779784365758,-0.39405003,10.642051,2.11695,-0.0768625,-0.3183125,0.140525,1.3063247,-0.5763407,-0.36335957,0.83111006,9.563848,2.0031104,1.4588841,-6.8951272,109.4078054
1779784365775,2.09295,9.79695,2.7829502,0.064625,0.0072875,-0.135025,-1.2251601,1.0782032,0.11383963,0.8379621,9.561678,2.0105982,1.4588841,-6.8951272,109.4078054
1779784365776,2.28195,9.835051,0.076050006,0.064625,0.0072875,-0.135025,1.254988,0.23527241,0.772352,0.852785,9.568308,1.9724656,1.4588841,-6.8951272,109.4078054
1779784365786,-2.91405,11.09805,3.90405,-0.1758625,-0.289575,0.1799875,-3.7608461,1.5317783,1.9191563,0.846796,9.566272,1.9848938,1.4588841,-6.8951272,109.4078054
1779784365802,3.13995,8.08905,1.81305,0.1243,0.0094875,-0.0966625,-3.7608461,1.5317783,1.9191563,0.8626988,9.566348,1.9776567,1.4588841,-6.8951272,109.4078054
1779784365810,1.9060501,8.98305,1.9420501,-0.0257125,9.625E-4,-0.1722875,2.2772512,-1.4772978,-0.16460669,0.86352414,9.566653,1.9758208,1.4588841,-6.8951272,109.4078054
1779784365819,-1.9150501,10.840951,1.659,-0.1098625,-0.100099996,-0.0169125,1.042526,-0.5836029,-0.03377068,0.8474396,9.570128,1.9659342,1.4588841,-6.8951272,109.4078054
1779784365828,2.4550502,8.961,1.18305,-0.2046,-0.2096875,-0.153175,-2.7624898,1.2708225,-0.30693412,0.8474396,9.570128,1.9659342,1.4588841,-6.8951272,109.4078054
1779784365837,2.22495,10.156051,2.6100001,0.0859375,-0.175725,-0.095699996,1.5876784,-0.6069288,-0.7848885,0.87535924,9.566469,1.9715029,1.4588841,-6.8951272,109.4078054
1779784365854,0.67305005,12.022051,-0.795,0.0732875,-0.371525,-0.0083875,-1.7137349,-0.25869942,3.0653634,0.87535924,9.566469,1.9715029,1.4588841,-6.8951272,109.4078054
1779784365855,-0.88500005,9.30795,5.0560503,0.0732875,-0.371525,-0.0083875,-1.7137349,-0.25869942,3.0653634,0.87535924,9.566469,1.9715029,1.4588841,-6.8951272,109.4078054
1779784365866,2.3419502,9.07905,1.2210001,-0.1758625,-0.1150875,-0.3223,-1.7137349,-0.25869942,3.0653634,0.8444386,9.56915,1.9719734,1.4588841,-6.8951272,109.4078054
1779784365875,-0.021000002,8.96805,3.9829502,0.180675,-0.3843125,-0.20845,1.4975116,-0.4900999,-0.75097334,0.7905197,9.552073,2.0744584,1.4588841,-6.8951272,109.4078054
1779784365886,0.49995002,10.887,-1.0200001,-0.2035,-0.3609375,-0.124437496,-0.81151974,-0.5840225,1.9084918,0.7742089,9.561756,2.035639,1.4588841,-6.8951272,109.4078054
1779784365897,3.82695,7.3830004,3.348,0.2008875,-0.1991,-0.1956625,-0.27425888,1.325244,-3.0556393,0.7880147,9.555292,2.060545,1.4588841,-6.8951272,109.4078054
1779784365904,-0.028050002,13.423051,-0.42600003,-0.0820875,-0.2651,-0.396825,3.0389354,-2.1722918,1.2874551,0.7586349,9.562377,2.0385869,1.4588841,-6.8951272,109.4078054
1779784365914,2.232,9.17205,0.96000004,-0.1013375,-0.7610625,-0.088275,-0.78668493,3.860674,-2.464587,0.77086544,9.563233,2.0299535,1.4588841,-6.8951272,109.4078054
1779784365926,1.7719501,8.911051,5.44395,-0.2396625,-0.4492125,-0.478775,1.4611347,-0.3911829,-1.0699534,0.7503382,9.55618,2.0704637,1.4588841,-6.8951272,109.4078054
1779784365934,-0.18105,9.19305,2.1049502,0.2168375,-0.3427875,-0.496925,1.0216119,-0.6451292,3.3734865,0.71248925,9.561412,2.05965,1.4588841,-6.8951272,109.4078054
1779784365944,0.22305001,10.743001,2.00895,-0.0396,-0.7918625,-0.0477125,-0.89353925,-0.36836147,0.045300245,0.68522394,9.563549,2.058979,1.4588841,-6.8951272,109.4078054
1779784365955,4.5139503,8.382,2.56005,-0.1183875,-0.4417875,-0.739475,-0.46217394,1.179452,-0.05002904,0.7966095,9.549745,2.0828269,1.4588841,-6.8951272,109.4078054
1779784365968,-0.77505004,11.062051,-0.246,-0.016224999,-0.5300625,-0.479875,3.717341,-1.1677446,0.47722316,0.7545818,9.560304,2.0497787,1.4588841,-6.8951272,109.4078054
1779784365982,0.79695004,10.276051,1.01505,-0.2875125,-0.6524375,-0.411675,-1.5296319,1.5017471,-2.2957788,0.7237886,9.564995,2.0389667,1.4588841,-6.8951272,109.4078054
1779784365989,2.5819502,8.166,3.8149502,0.0732875,-0.4279,-0.86185,0.07316142,0.71105576,-1.0239166,0.703416,9.560843,2.0654044,1.4588841,-6.8951272,109.4078054
1779784366002,0.16995001,10.812,1.56105,-0.054449998,-0.8078125,-0.0732875,1.8785342,-1.3948431,1.7495458,0.6474813,9.5672455,2.0540152,1.4588841,-6.8951272,109.4078054
1779784366009,-0.52605003,9.471001,2.63205,-0.02145,-0.5630625,-0.3532375,-0.4775313,1.2447548,-0.4929651,0.5864482,9.566695,2.0748038,1.4588841,-6.8951272,109.4078054
1779784366018,1.5829501,9.92595,3.0270002,-0.0427625,-0.3757875,-0.5000875,-1.1124983,-0.09569454,0.5572462,0.5864482,9.566695,2.0748038,1.4588841,-6.8951272,109.4078054
1779784366036,3.2740502,8.724,-0.70605004,0.0477125,-0.4981625,-0.9981125,2.7030036,-0.85130405,-2.7451277,0.57104665,9.575304,2.0390778,1.4588841,-6.8951272,109.4078054
1779784366040,-3.4480503,11.365951,3.9610503,0.0477125,-0.4981625,-0.9981125,2.7030036,-0.85130405,-2.7451277,0.506599,9.576871,2.0487235,1.4588841,-6.8951272,109.4078054
1779784366046,3.6829503,8.202001,0.75900006,0.2041875,-0.9227625,-0.7852625,-3.9546492,1.7890797,1.9123268,0.5162039,9.580175,2.0308106,1.4588841,-6.8951272,109.4078054
1779784366056,-0.16905001,11.7630005,2.6509502,-0.1098625,-1.204775,-0.5394125,3.1667464,-1.3781748,-1.2718105,0.46444854,9.583405,2.028065,1.4588841,-6.8951272,109.4078054
1779784366067,1.6210501,8.06505,1.3069501,-0.111925,-0.77385,-0.4978875,-0.63349855,2.179596,0.6228852,0.42821285,9.586553,2.0211527,1.4588841,-6.8951272,109.4078054
1779784366075,-0.9480001,10.578,1.5799501,0.0699875,-0.6791125,-0.9119,1.1928372,-1.5215025,-0.71420264,0.3670745,9.590973,2.012181,1.4588841,-6.8951272,109.4078054
1779784366086,0.75900006,8.7960005,1.389,0.0955625,-1.23035,-0.5308875,-1.3150746,0.98702717,-0.43223095,0.3670745,9.590973,2.012181,1.4588841,-6.8951272,109.4078054
1779784366097,-1.1730001,12.067051,1.9369501,-0.054449998,-1.0792375,-0.63635,0.4502322,-0.79846954,-0.6162938,0.27833617,9.596392,2.0005505,1.4588841,-6.8951272,109.4078054
1779784366106,3.351,6.9640503,-0.32700002,-0.0353375,-0.7525375,-0.739475,-1.4513363,2.4706593,-0.06360042,0.25394145,9.597937,1.9963764,1.4588841,-6.8951272,109.4078054
1779784366116,-3.4669502,10.651951,2.4090002,0.0902,-0.6598625,-0.6523,3.0970585,-2.6338863,-2.3233764,0.17813188,9.599422,1.997435,1.4588841,-6.8951272,109.4078054
1779784366129,-1.6489501,10.791,1.932,-0.2035,-0.89196247,-0.545875,-3.645082,1.0525284,0.41156518,0.12380905,9.600144,1.9980742,1.4588841,-6.8951272,109.4078054
1779784366137,3.55395,8.844001,1.2760501,-0.08635,-0.8855,-0.56925,-1.7727592,1.190856,-0.06607413,0.1744833,9.602045,1.9851147,1.4588841,-6.8951272,109.4078054
1779784366155,-0.58095,8.932051,0.28005,-0.098175,-0.44701248,-0.921525,3.3794668,-0.75804424,-0.7090646,0.1744833,9.602045,1.9851147,1.4588841,-6.8951272,109.4078054
1779784366163,-5.6269503,10.98495,1.8199501,0.04455,-0.62796247,-0.3925625,-0.69669616,-0.6742182,-1.6888527,0.03548574,9.607421,1.9663635,1.4588841,-6.8951272,109.4078054
1779784366168,1.19505,11.18595,3.0340502,0.0955625,-0.4651625,-0.4244625,-5.662436,1.3775291,-0.14641345,0.011928339,9.606423,1.971522,1.4588841,-6.8951272,109.4078054
1779784366176,6.25995,6.0319505,-1.14705,0.1029875,-0.5779125,-0.543675,6.2562613,-3.5758853,-3.1117065,0.0036889177,9.607836,1.9646565,1.4588841,-6.8951272,109.4078054
1779784366188,-9.534,10.297951,6.4729505,0.100925,-0.7035875,-0.756525,6.2562613,-3.5758853,-3.1117065,-0.042052552,9.607422,1.9662347,1.4588841,-6.8951272,109.4078054
1779784366198,-2.2120502,12.487051,-2.16405,0.1296625,-1.041975,-0.4415125,-9.491948,0.69052887,4.506716,-0.06489655,9.613283,1.9367405,1.4588841,-6.8951272,109.4078054
1779784366207,7.2499504,7.0950003,1.8919501,-0.41415,-0.9153375,-0.495825,-2.1471536,2.8737679,-4.1007905,0.032390695,9.607102,1.9679748,1.4588841,-6.8951272,109.4078054
1779784366218,-4.0300503,7.02405,4.9999504,0.013612499,-0.241725,-0.8151,7.21756,-2.5121021,-0.07602465,-0.10524112,9.591896,2.0383477,1.4588841,-6.8951272,109.4078054
1779784366230,-10.519951,15.255001,-0.040050004,0.1254,-0.3672625,-0.0158125,-3.9248092,-2.5678458,2.9616027,-0.1464353,9.5954895,2.0187922,1.4588841,-6.8951272,109.4078054
1779784366240,9.489,9.189,-1.3480501,-0.2396625,-0.48427498,-0.346775,-10.373515,5.6595116,-2.0588422,-0.12839696,9.593972,2.0272179,1.4588841,-6.8951272,109.4078054
1779784366250,2.4,2.736,5.6260505,-0.0342375,-0.2055625,-0.692725,2.5825307,-6.8532076,3.5805268,-0.1825307,9.589208,2.0455236,1.4588841,-6.8951272,109.4078054
1779784366270,-19.55895,15.784951,3.0700502,0.032725,-0.697125,0.076725,2.5825307,-6.8532076,3.5805268,-0.2078066,9.595253,2.014537,1.4588841,-6.8951272,109.4078054
1779784366270,8.062051,10.792951,-5.3089504,-0.48014998,-0.5289625,-0.0083875,-19.351143,6.189698,1.0555131,-0.18621962,9.593404,2.025418,1.4588841,-6.8951272,109.4078054
1779784366280,11.173051,2.35305,4.37505,0.131725,-0.052249998,-0.7448375,8.24827,1.1995468,-7.3343687,-0.1907216,9.587189,2.0542247,1.4588841,-6.8951272,109.4078054
1779784366294,-20.409,12.604051,6.52605,0.5819,-0.143825,-0.7033125,11.363772,-7.2341385,2.3208253,-0.2558987,9.591846,2.0251834,1.4588841,-6.8951272,109.4078054
1779784366304,-6.08505,15.787051,-4.39395,-0.5099875,-0.2352625,0.08305,-20.153101,3.0122042,4.500867,-0.2558987,9.591846,2.0251834,1.4588841,-6.8951272,109.4078054
1779784366311,22.285952,3.3330002,4.1449504,-0.143825,-0.189475,-0.53735,-5.8656936,6.194412,-6.419668,-0.21770898,9.584644,2.0633912,1.4588841,-6.8951272,109.4078054
1779784366320,-7.3999505,6.20205,4.00605,0.150975,0.676775,-0.9491625,22.50366,-6.251644,2.0815592,-0.4094266,9.574962,2.0791543,1.4588841,-6.8951272,109.4078054
1779784366345,-28.416002,18.952951,1.14705,-0.0768625,-0.533225,0.7865,-6.990524,-3.3729115,1.9268959,-0.33769146,9.575401,2.08998,1.4588841,-6.8951272,109.4078054
1779784366345,21.421051,6.36,-1.5109501,-0.0768625,-0.533225,0.7865,21.758743,-3.2154012,-3.60093,-0.33769146,9.575401,2.08998,1.4588841,-6.8951272,109.4078054
1779784366351,13.786051,2.19,-0.15495001,0.0391875,0.1967625,-0.8278875,21.758743,-3.2154012,-3.60093,-0.37160835,9.575774,2.0825078,1.4588841,-6.8951272,109.4078054
1779784366362,-34.273952,16.458,7.4220004,0.032725,-0.3928375,-0.234025,14.15766,-7.385774,-2.2374578,-0.45630234,9.573864,2.074443,1.4588841,-6.8951272,109.4078054
1779784366371,-0.48105,12.649051,-2.50005,-0.245025,-0.6216375,0.97171247,-33.81765,6.884136,5.347557,-0.35234514,9.580497,2.064056,1.4588841,-6.8951272,109.4078054
1779784366385,30.436052,1.02195,-1.1710501,0.0221375,0.14355,-0.4648875,-0.12870488,3.068554,-4.564106,-0.34313422,9.576665,2.0832944,1.4588841,-6.8951272,109.4078054
1779784366392,-17.04,10.587001,8.11905,0.4296875,0.5341875,-1.15885,30.779186,-8.554715,-3.2543445,-0.4622288,9.574879,2.0684392,1.4588841,-6.8951272,109.4078054
1779784366401,-26.241001,19.216951,0.97395,0.0050875,-0.87065,1.237775,-16.577772,1.0121222,6.0506105,-0.40982848,9.579773,2.0567892,1.4588841,-6.8951272,109.4078054
1779784366412,29.200052,3.6079502,-2.83695,-0.293975,-0.1214125,0.18425,-25.831173,9.637178,-1.0828391,-0.35541213,9.5755625,2.0863085,1.4588841,-6.8951272,109.4078054
1779784366423,8.1,2.3370001,3.66195,0.279675,1.1928124,-1.3514875,29.555464,-5.9676123,-4.923259,-0.35541213,9.5755625,2.0863085,1.4588841,-6.8951272,109.4078054
1779784366436,-38.569054,21.775051,1.7410501,0.1051875,-0.501325,0.6524375,8.401467,-7.232435,1.5393503,-0.250586,9.57151,2.119863,1.4588841,-6.8951272,109.4078054
1779784366439,13.5390005,9.20505,-0.68895006,-0.44605,-0.5407875,0.9207,-38.318466,12.203541,-0.3788129,-0.24007776,9.572207,2.1179218,1.4588841,-6.8951272,109.4078054
1779784366452,28.122002,-2.8519502,-0.19095,0.1265,0.0999625,-0.3223,28.338514,-12.422455,-2.3190808,-0.21651305,9.570504,2.128131,1.4588841,-6.8951272,109.4078054
1779784366466,-34.38705,19.20195,4.584,0.2168375,0.2212375,-1.066175,28.338514,-12.422455,-2.3190808,-0.34628218,9.5726795,2.1010208,1.4588841,-6.8951272,109.4078054
1779784366470,-7.4089503,15.463951,0.20595,-0.3971,-0.5588,1.19845,-34.040768,9.629271,2.4829793,-0.286179,9.572936,2.1088831,1.4588841,-6.8951272,109.4078054
1779784366484,34.543053,-2.08605,-1.09905,0.0572,-0.2204125,0.2853125,-7.1227713,5.891015,-1.9029331,-0.2160279,9.570368,2.1288025,1.4588841,-6.8951272,109.4078054
1779784366490,-14.008051,12.163051,5.20905,0.5223625,0.837375,-1.606825,34.75908,-11.656418,-3.2278526,-0.3194877,9.571655,2.1099122,1.4588841,-6.8951272,109.4078054
1779784366500,-28.093052,19.878,-1.056,-0.21725,-0.81427497,0.7748125,-13.688563,2.5913954,3.099138,-0.34234133,9.573754,2.0967596,1.4588841,-6.8951272,109.4078054
1779784366509,26.688002,0.74100006,0.069000006,-0.2726625,-0.6513375,0.58547497,-27.750711,10.304246,-3.1527596,-0.24413405,9.5686455,2.1334996,1.4588841,-6.8951272,109.4078054
1779784366521,10.36305,5.19105,2.5429502,0.180675,0.219175,-1.3780249,26.932137,-8.827645,-2.0644996,-0.2124553,9.570056,2.1305606,1.4588841,-6.8951272,109.4078054
1779784366532,-35.541,21.528002,1.233,0.20515,-0.32999998,-0.095699996,10.575506,-4.379006,0.41238952,-0.30836657,9.573085,2.105081,1.4588841,-6.8951272,109.4078054
1779784366540,11.71905,6.36705,0.78000003,-0.2875125,-0.80465,0.6908,-35.232635,11.954917,-0.87208104,-0.18879735,9.569959,2.1332188,1.4588841,-6.8951272,109.4078054
1779784366554,23.17605,0.07095,1.6350001,-0.028875,0.60005,-0.4277625,11.907847,-3.2029085,-1.3532188,-0.2336942,9.57164,2.121201,1.4588841,-6.8951272,109.4078054
1779784366561,-30.13095,20.946001,0.9580501,0.2179375,0.1148125,-0.5330875,23.409744,-9.50069,-0.48620093,-0.27600363,9.573237,2.1088707,1.4588841,-6.8951272,109.4078054
1779784366572,-0.84495,11.62695,1.48905,-0.3344,-0.66522497,0.5152125,-29.854948,11.372764,-1.1508207,-0.2218997,9.570942,2.1256115,1.4588841,-6.8951272,109.4078054
1779784366582,25.636051,-3.5970001,2.1070502,-0.0416625,0.0584375,-0.0903375,-0.62305033,2.0560083,-0.6365615,-0.17870325,9.566885,2.147836,1.4588841,-6.8951272,109.4078054
1779784366592,-24.253052,17.55705,1.4250001,0.28393748,0.17765,-0.774675,25.814754,-13.163885,-0.04078579,-0.2841402,9.572931,2.1091805,1.4588841,-6.8951272,109.4078054
1779784366601,-9.106951,15.928051,1.2859501,-0.2226125,-0.64075,0.64295,-23.968912,7.9841194,-0.6841804,-0.24832594,9.571025,2.1223154,1.4588841,-6.8951272,109.4078054
1779784366610,28.462051,-2.8860002,-0.88605005,-0.1588125,-0.4310625,0.337425,-8.858624,6.357026,-0.83636534,-0.18101795,9.5679455,2.1429102,1.4588841,-6.8951272,109.4078054
1779784366620,-16.542002,13.1310005,5.6730003,0.38073748,0.3553,-1.2524875,28.64307,-12.453945,-3.0289602,-0.28214318,9.569332,2.1257164,1.4588841,-6.8951272,109.4078054
1779784366636,-18.41205,20.46405,-1.4820001,-0.243925,-0.41085,0.6939625,-16.25986,3.5616684,3.547284,-0.21323885,9.5681095,2.1392064,1.4588841,-6.8951272,109.4078054
1779784366641,27.451952,-1.27695,-0.81405,-0.36313748,-0.7121125,0.62273747,-18.19881,10.895941,-3.6212065,-0.21165948,9.568149,2.1391835,1.4588841,-6.8951272,109.4078054
1779784366652,-3.6420002,7.8120003,7.32105,0.5531625,0.6458375,-1.4334375,-3.3316593,-1.7441769,5.1407824,-0.3103408,9.556177,2.180268,1.4588841,-6.8951272,109.4078054
1779784366666,-27.408,21.597,-1.779,-0.02365,-0.4555375,0.41195,-3.3316593,-1.7441769,5.1407824,-0.34797552,9.561252,2.1521535,1.4588841,-6.8951272,109.4078054
1779784366671,19.021051,2.0730002,-1.161,-0.455675,-0.8311875,0.716375,-27.060026,12.0357485,-3.9311535,-0.25880992,9.555734,2.1889217,1.4588841,-6.8951272,109.4078054
1779784366686,9.798,3.11295,6.1789503,0.460625,0.8001125,-1.085425,19.279861,-7.4827337,-3.3499217,-0.2204387,9.549116,2.2217534,1.4588841,-6.8951272,109.4078054
1779784366692,-28.957052,21.80805,-2.6820002,0.230725,-0.2671625,0.0490875,10.018439,-6.436166,3.957197,-0.2890645,9.557075,2.179259,1.4588841,-6.8951272,109.4078054
1779784366702,7.8409505,7.3759503,-0.54300004,-0.4855125,-0.7577625,0.7662875,-28.667988,12.250976,-4.8612595,-0.10458704,9.559746,2.1841984,1.4588841,-6.8951272,109.4078054
1779784366712,19.22505,-0.462,5.8390503,0.23925,0.7203625,-0.66605,7.9455376,-2.1837955,-2.7271984,-0.079926066,9.555253,2.2048028,1.4588841,-6.8951272,109.4078054
1779784366722,-26.149952,20.008951,-0.82605004,0.3881625,-0.0352,-0.24365,19.304976,-10.017253,3.6342475,-0.16474195,9.564637,2.1589258,1.4588841,-6.8951272,109.4078054
1779784366733,-2.1400502,12.606001,-0.91695005,-0.373725,-0.715275,0.70454997,-25.98521,10.444314,-2.9849758,-0.12264556,9.563964,2.1647072,1.4588841,-6.8951272,109.4078054
1779784366742,25.066051,-3.3460503,5.2590003,-0.1183875,0.47341248,-0.2690875,-2.0174046,3.042037,-3.0816572,-0.07102905,9.556349,2.2003515,1.4588841,-6.8951272,109.4078054
1779784366752,-22.773,17.362951,1.22595,0.5627875,0.2393875,-0.5075125,25.137081,-12.902399,3.0586488,-0.16654666,9.566052,2.152512,1.4588841,-6.8951272,109.4078054
1779784366774,-10.180051,17.382,-3.5730002,-0.372625,-0.6023875,0.6705875,-22.606455,7.796899,-0.9265621,-0.055498894,9.556613,2.1996517,1.4588841,-6.8951272,109.4078054
1779784366774,28.992,-5.23605,3.348,-0.372625,-0.6023875,0.6705875,-22.606455,7.796899,-0.9265621,-0.055498894,9.556613,2.1996517,1.4588841,-6.8951272,109.4078054
1779784366782,-17.99805,14.350051,3.62295,0.623425,0.4426125,-0.7767375,29.047499,-14.792664,1.1483483,-0.1562164,9.564825,2.158733,1.4588841,-6.8951272,109.4078054
1779784366792,-16.908,21.244951,-3.2250001,-0.2822875,-0.4002625,0.5960625,-17.841835,4.785226,1.4642172,-0.13808803,9.567928,2.1461744,1.4588841,-6.8951272,109.4078054
1779784366814,30.453001,-4.53405,1.52295,0.49885,-0.0171875,-0.27335,-16.769913,11.677023,-5.371175,-0.14775836,9.562002,2.1717885,1.4588841,-6.8951272,109.4078054
1779784366814,-10.36005,10.05105,5.05305,0.49885,-0.0171875,-0.27335,-10.212292,0.489048,2.8812616,-0.14775836,9.562002,2.1717885,1.4588841,-6.8951272,109.4078054
1779784366824,-25.345951,23.212051,-3.4050002,-0.1725625,-0.1863125,0.4395875,-10.212292,0.489048,2.8812616,-0.15865181,9.567724,2.1456656,1.4588841,-6.8951272,109.4078054
1779784366836,26.88195,-1.54005,-0.27,-0.552475,-0.8823375,0.9238625,-25.1873,13.644327,-5.550666,-0.074892454,9.556961,2.1975546,1.4588841,-6.8951272,109.4078054
1779784366845,2.4400501,5.6940002,7.59705,0.541475,0.5011875,-1.018325,26.956842,-11.097012,-2.4675546,0.07108751,9.438383,2.6612551,1.4588841,-6.8951272,109.4078054
1779784366855,-29.194052,24.70605,-3.6780002,-0.1970375,-0.231,0.44385,2.3689625,-3.7443829,4.935795,0.07108751,9.438383,2.6612551,1.4588841,-6.8951272,109.4078054
1779784366869,16.522951,2.739,-1.08405,-0.6281,-0.6439125,0.7759125,16.336992,-6.689804,-3.773563,0.18595892,9.428804,2.6895127,1.4588841,-6.8951272,109.4078054
1779784366876,11.974951,1.5370501,7.8030005,0.606375,0.4670875,-1.019425,16.336992,-6.689804,-3.773563,0.14125848,9.4322605,2.6800928,1.4588841,-6.8951272,109.4078054
1779784366887,-26.968952,23.121,-3.3259501,-0.097075,0.022275,0.1683,11.833693,-7.8952103,5.1229076,0.113523215,9.441171,2.6498647,1.4588841,-6.8951272,109.4078054
1779784366896,5.9440503,6.36495,-1.84395,-0.6546375,-0.83875,0.990825,5.655344,-3.072567,-4.493537,0.28870648,9.437517,2.649587,1.4588841,-6.8951272,109.4078054
1779784366906,16.810951,-2.22,8.847,0.51919997,0.414975,-0.93747497,5.655344,-3.072567,-4.493537,0.2563593,9.438004,2.6511824,1.4588841,-6.8951272,109.4078054
1779784366916,-22.948051,20.88105,-1.8840001,0.165825,0.04675,0.1128875,-23.172554,11.429355,-4.4888887,0.2563593,9.438004,2.6511824,1.4588841,-6.8951272,109.4078054
1779784366926,0.87900007,12.23295,-4.0399504,-0.6791125,-0.8493375,1.1015126,-23.172554,11.429355,-4.4888887,0.31402242,9.446016,2.6162097,1.4588841,-6.8951272,109.4078054
1779784366936,22.07505,-3.7150502,8.583,0.43821248,0.626725,-0.9906875,0.56497765,2.786934,-6.6561604,0.29728726,9.441321,2.6350484,1.4588841,-6.8951272,109.4078054
1779784366946,-22.900051,19.76505,-0.615,0.3977875,-0.02145,0.05335,21.777763,-13.156372,5.947952,0.24881256,9.458572,2.5775783,1.4588841,-6.8951272,109.4078054
1779784366956,-4.71705,16.24395,-3.7039502,-0.716375,-0.80465,1.0781375,-23.148863,10.3064785,-3.1925783,0.3233765,9.4470625,2.611285,1.4588841,-6.8951272,109.4078054
1779784366967,28.647001,-5.4150004,7.0579505,0.3276625,0.8129,-0.8171625,-5.0404267,6.7968874,-6.315235,0.33652037,9.4394865,2.6368988,1.4588841,-6.8951272,109.4078054
1779784366982,-21.466051,16.86,1.2040501,0.50215,0.0903375,-0.1786125,28.31048,-14.854486,4.421052,0.25757134,9.457413,2.5809696,1.4588841,-6.8951272,109.4078054
1779784366984,-15.136051,19.806002,-4.0690503,-0.60885,-0.8855,1.1270875,-21.723623,7.402588,-1.3769195,0.270043,9.457556,2.579167,1.4588841,-6.8951272,109.4078054
1779784366995,31.293001,-5.81505,3.8479502,-0.4833125,0.0232375,0.4258375,-15.406095,10.348446,-6.648217,0.38987583,9.436057,2.6418169,1.4588841,-6.8951272,109.4078054
1779784367006,-13.086,12.09405,3.6330001,0.426525,0.0510125,-0.1392875,30.903126,-15.251107,1.2061334,0.27176994,9.457121,2.5805786,1.4588841,-6.8951272,109.4078054
1779784367014,-23.511002,22.996052,-4.1860504,-0.2567125,-0.1948375,0.517275,-13.35777,2.6369295,1.0524216,0.28893822,9.455392,2.5850463,1.4588841,-6.8951272,109.4078054
1779784367025,29.262001,-4.6729503,2.7799501,-0.64515,-0.5907,0.8089125,28.859089,-14.108587,0.1385839,0.40291125,9.4356365,2.6413662,1.4588841,-6.8951272,109.4078054
1779784367039,-2.775,8.125051,6.5620503,0.7277875,0.17655,-0.350075,28.859089,-14.108587,0.1385839,0.24902415,9.438673,2.649495,1.4588841,-6.8951272,109.4078054
1779784367045,-26.031002,24.952951,-6.267,-0.081125,-0.0064625,0.28105,-3.0240242,-1.3136225,3.9125555,0.2550722,9.440221,2.6434007,1.4588841,-6.8951272,109.4078054
1779784367054,21.841951,-1.9399501,1.28295,-0.652575,-0.798325,0.9515,-26.286074,15.512731,-8.9104,0.36095923,9.420366,2.7012591,1.4588841,-6.8951272,109.4078054
1779784367066,4.25295,4.767,7.2060003,0.657525,0.5308875,-1.0225875,21.480991,-11.360316,-1.4183091,0.49504474,9.34576,2.9295223,1.4588841,-6.8951272,109.4078054
1779784367077,-24.05895,25.072052,-6.2770505,0.657525,0.5308875,-1.0225875,-24.520845,15.710918,-9.162573,0.46189564,9.361134,2.8855221,1.4588841,-6.8951272,109.4078054
1779784367084,16.14705,2.832,1.6330501,-0.70248747,-0.830225,0.879175,-24.520845,15.710918,-9.162573,0.56185734,9.339094,2.938709,1.4588841,-6.8951272,109.4078054
1779784367095,9.67605,1.9939501,7.9440002,0.63085,0.5990875,-1.050225,15.585194,-6.5070944,-1.3056589,0.57973176,9.328455,2.9688811,1.4588841,-6.8951272,109.4078054
1779784367105,-25.91595,22.407001,-4.28205,0.17435,-0.22247499,-0.0308,9.096318,-7.334505,4.975119,0.52518296,9.3460245,2.923423,1.4588841,-6.8951272,109.4078054
1779784367115,7.65705,6.80595,2.32305,-0.5726875,-0.846175,0.896225,-26.441133,13.060977,-7.205473,0.75276107,9.318015,2.962827,1.4588841,-6.8951272,109.4078054
1779784367125,19.608002,-0.43395,5.0869503,0.3158375,0.676775,-0.74909997,6.9042892,-2.512065,-0.63977695,0.7182529,9.325439,2.9479973,1.4588841,-6.8951272,109.4078054
1779784367136,-24.994051,19.854,-2.289,0.412775,0.036025,-0.25959998,18.88975,-9.75939,2.138953,0.69421184,9.333338,2.9286964,1.4588841,-6.8951272,109.4078054
1779784367147,-3.2640002,11.65305,-1.2210001,-0.536525,-0.80465,0.764225,-25.688263,10.520662,-5.217696,0.71940386,9.3336525,2.9216082,1.4588841,-6.8951272,109.4078054
1779784367156,24.580051,-1.33395,3.93195,-0.1992375,0.122237496,-0.2457125,-3.9834042,2.319398,-4.142608,0.77321666,9.321057,2.9479544,1.4588841,-6.8951272,109.4078054
1779784367166,-16.34295,17.253,1.899,0.2871,0.1563375,-0.37661248,23.806835,-10.655007,0.9839957,0.77321666,9.321057,2.9479544,1.4588841,-6.8951272,109.4078054
1779784367176,-9.28695,15.351001,0.71805006,-0.504625,-0.3289,0.3735875,-17.034206,7.9167795,-1.0211962,0.7034534,9.333269,2.9267123,1.4588841,-6.8951272,109.4078054
1779784367189,20.997002,-0.95595,7.8030005,0.1115125,-0.21395,-0.0191125,-9.990403,6.0177317,-2.2086623,0.76130205,9.317914,2.960958,1.4588841,-6.8951272,109.4078054
1779784367197,-8.335951,15.19305,1.4440501,0.5383125,0.0328625,-0.641575,20.235699,-10.273864,4.8420424,0.76130205,9.317914,2.960958,1.4588841,-6.8951272,109.4078054
1779784367206,-10.588051,14.503051,-2.6430001,-0.38541248,-0.6109125,0.1065625,-9.023663,5.8574734,-1.4790416,0.682792,9.336458,2.921426,1.4588841,-6.8951272,109.4078054
1779784367216,11.356951,1.71405,7.5820503,0.543675,0.14245,-0.3521375,10.605154,-7.5993853,4.6046133,0.75179684,9.313436,2.9774373,1.4588841,-6.8951272,109.4078054
1779784367226,-1.48905,12.292951,-2.811,0.24145,0.01155,-0.445775,10.605154,-7.5993853,4.6046133,0.75179684,9.313436,2.9774373,1.4588841,-6.8951272,109.4078054
1779784367239,-9.51,13.536,1.47,-0.0576125,-0.1034,-0.31707498,-2.197376,2.955762,-5.724001,0.6933248,9.329491,2.941141,1.4588841,-6.8951272,109.4078054
1779784367249,6.57705,4.9609504,8.089951,0.1775125,-0.0160875,-0.054175,-10.203325,4.2065096,-1.4711409,0.7672782,9.3033495,3.004892,1.4588841,-6.8951272,109.4078054
1779784367259,1.96905,10.686001,0.72495,0.089237496,0.0105875,-0.30635,5.809772,-4.342399,5.085058,0.76558894,9.321027,2.9500406,1.4588841,-6.8951272,109.4078054
1779784367276,-7.20795,11.6959505,4.4160004,-0.159775,-0.2671625,-0.1062875,1.2034612,1.364974,-2.2250905,0.73481506,9.317673,2.968401,1.4588841,-6.8951272,109.4078054
1779784367279,2.424,7.51695,5.3980503,0.20625,-0.34595,-0.039325,-7.942765,2.3782778,1.4475994,0.8201608,9.276828,3.0721664,1.4588841,-6.8951272,109.4078054
1779784367290,4.37295,10.42905,-0.82305,0.013612499,-0.1458875,-0.3213375,1.6038392,-1.7598777,2.3258839,0.8435519,9.291736,3.0203412,1.4588841,-6.8951272,109.4078054
1779784367315,-2.91105,9.703951,2.28705,-1.375E-4,-0.2332,-0.297825,3.5293982,1.1373148,-3.8433912,0.61094606,9.297755,3.0575953,1.4588841,-6.8951272,109.4078054
1779784367315,-3.4290001,8.688001,4.36305,-1.375E-4,-0.4651625,-0.17765,-4.039946,-0.60975456,1.3054547,0.61094606,9.297755,3.0575953,1.4588841,-6.8951272,109.4078054
1779784367319,2.421,9.63405,0.54300004,-1.375E-4,-0.4651625,-0.17765,-4.039946,-0.60975456,1.3054547,0.705145,9.331214,2.9328523,1.4588841,-6.8951272,109.4078054
1779784367331,2.12895,8.590051,3.147,-0.175725,-0.2512125,-0.396825,1.715855,0.30283642,-2.3898523,0.722913,9.322026,2.957635,1.4588841,-6.8951272,109.4078054
1779784367343,-4.116,9.117001,5.62305,-0.0171875,-0.6375875,-0.267025,1.4060371,-0.73197556,0.18936515,0.6594673,9.320715,2.976536,1.4588841,-6.8951272,109.4078054
1779784367351,-2.2789502,10.783951,1.9110001,-0.1480875,-0.4800125,-0.0977625,-4.7754674,-0.20371437,2.6465142,0.6237185,9.327621,2.9625716,1.4588841,-6.8951272,109.4078054
1779784367360,4.9960504,7.6270504,3.42195,-0.0374,-0.34485,-0.24365,-2.9026687,1.4563293,-1.0515715,0.86174834,9.293695,3.0091527,1.4588841,-6.8951272,109.4078054
1779784367370,-1.4770501,9.114,4.4230504,-1.375E-4,-0.16499999,-0.414975,4.134302,-1.666645,0.41279745,0.7645546,9.291131,3.0431447,1.4588841,-6.8951272,109.4078054
1779784367380,-4.71495,10.88895,3.8149502,-0.0650375,-0.5300625,-0.0732875,-2.2416048,-0.1771307,1.3799057,0.73109984,9.294828,3.0400765,1.4588841,-6.8951272,109.4078054
1779784367398,3.3100502,8.235001,2.7559502,0.0818125,-0.5237375,-0.4565,-5.4460497,1.5941219,0.77487373,0.7773998,9.291681,3.0382094,1.4588841,-6.8951272,109.4078054
1779784367403,1.05795,10.345051,1.5280501,0.0818125,-0.5237375,-0.4565,2.5326505,-1.0566807,-0.28225923,0.7539003,9.308323,2.9928465,1.4588841,-6.8951272,109.4078054
1779784367410,-2.8249502,10.37895,0.74205005,-0.128975,-0.697125,-0.53625,0.30404973,1.0367279,-1.4647964,0.6796841,9.323345,2.9637227,1.4588841,-6.8951272,109.4078054
1779784367427,-2.22405,9.28005,3.21405,0.0275,-0.993025,-0.40535,-3.5046344,1.0556049,-2.2216725,0.5716729,9.328005,2.971852,1.4588841,-6.8951272,109.4078054
1779784367438,1.9759501,8.86995,1.746,-0.0661375,-0.8397125,-0.6628875,1.4170014,-0.46409035,-1.2092786,0.55894876,9.334041,2.9552786,1.4588841,-6.8951272,109.4078054
1779784367441,-1.065,8.98305,5.4480004,0.034925,-0.6567,-0.6799375,1.4170014,-0.46409035,-1.2092786,0.53146166,9.322816,2.9955046,1.4588841,-6.8951272,109.4078054
1779784367458,-1.26405,9.021001,3.0270002,0.001925,-0.713075,-0.3669875,-1.5964618,-0.33976555,2.4524958,0.45337448,9.328463,2.9907613,1.4588841,-6.8951272,109.4078054
1779784367462,-2.3770502,9.4810505,4.5409503,-0.05555,-0.486475,-0.284075,-1.7174245,-0.30746174,0.03623891,0.38255528,9.326307,3.0073318,1.4588841,-6.8951272,109.4078054
1779784367471,0.74505,9.847051,1.8750001,0.1359875,-0.4002625,-0.2468125,-2.7596054,0.1547432,1.5336185,0.38961628,9.340671,2.9614966,1.4588841,-6.8951272,109.4078054
1779784367481,-0.38700002,9.91905,0.84000003,-0.1885125,-0.5726875,-0.3458125,0.35543373,0.5063801,-1.0864965,0.3344909,9.365138,2.8901029,1.4588841,-6.8951272,109.4078054
1779784367496,-3.96495,9.700951,5.18505,0.119075,-0.7907625,-0.4021875,-0.7214909,0.55391216,-2.0501027,0.28318042,9.36538,2.894796,1.4588841,-6.8951272,109.4078054
1779784367502,1.2430501,9.684,0.13095,0.0743875,-0.62273747,-0.1936,-4.2481303,0.33557034,2.290254,0.28318042,9.36538,2.894796,1.4588841,-6.8951272,109.4078054
1779784367511,-1.2900001,8.616,6.636,0.00935,-0.8525,-0.45319998,0.9109037,0.2803831,-2.6316686,0.27584815,9.38963,2.8158712,1.4588841,-6.8951272,109.4078054
1779784367524,0.141,9.330001,2.292,0.0317625,-0.6205375,-0.444675,-1.5658482,-0.77363014,3.820129,0.2480331,9.398364,2.789194,1.4588841,-6.8951272,109.4078054
1779784367533,-3.108,9.385051,4.524,-0.0268125,-0.4961,-0.4235,-0.1070331,-0.06836319,-0.49719405,0.18003888,9.391779,2.8164666,1.4588841,-6.8951272,109.4078054
1779784367542,-1.57305,9.856951,3.73305,0.1595,-0.7280625,-0.2935625,-3.288039,-0.0067281723,1.7075336,0.14436464,9.393033,2.8143356,1.4588841,-6.8951272,109.4078054
1779784367551,0.915,9.045,0.40005,-0.257675,-0.5652625,-0.641575,-1.7174146,0.46391773,0.9187145,0.12647183,9.400129,2.791407,1.4588841,-6.8951272,109.4078054
1779784367563,-5.5939503,9.28905,5.9560504,0.1445125,-0.7568,-0.2127125,0.7885282,-0.35512924,-2.3913572,0.08543869,9.398637,2.7979848,1.4588841,-6.8951272,109.4078054
1779784367575,1.01505,9.085951,0.08595,-0.1683,-0.4885375,-0.3458125,0.9304487,-0.32319927,-2.6765025,0.084601365,9.40915,2.7624524,1.4588841,-6.8951272,109.4078054
1779784367582,-1.743,8.443951,6.3700504,0.168025,-0.569525,-0.3256,0.9304487,-0.32319927,-2.6765025,0.038698565,9.3944645,2.8129945,1.4588841,-6.8951272,109.4078054
1779784367592,-0.61905,11.457001,0.53895,0.0083875,-0.846175,-0.2926,-1.7816986,-0.95051384,3.557056,0.02210954,9.404371,2.7798746,1.4588841,-6.8951272,109.4078054
1779784367608,1.0699501,8.415,3.4249501,-0.2129875,-0.5726875,-0.8245875,-0.6411596,2.0526295,-2.2409246,0.003920096,9.3951435,2.8109884,1.4588841,-6.8951272,109.4078054
1779784367614,-3.9079502,10.36005,4.37505,0.3254625,-0.862125,-0.314875,-3.878119,0.9604311,1.5792212,-0.029831076,9.399619,2.7958288,1.4588841,-6.8951272,109.4078054
1779784367622,1.42005,10.599001,-2.2120502,-0.4609,-0.5907,-0.446875,-3.878119,0.9604311,1.5792212,-0.038673136,9.411011,2.7571309,1.4588841,-6.8951272,109.4078054
1779784367636,-2.5759501,6.6379504,10.468051,0.27225,-0.4800125,-0.4085125,1.4587232,1.1879902,-4.969181,-0.078927115,9.399367,2.7957187,1.4588841,-6.8951272,109.4078054
1779784367639,-0.36105,11.028001,-1.9849501,0.232925,-0.958925,-0.380875,-2.497023,-2.761417,7.6723323,-0.095029525,9.418401,2.730404,1.4588841,-6.8951272,109.4078054
1779784367650,-3.1009502,8.917951,5.14905,-0.41195,-0.6142125,-0.8353125,-0.26602048,1.6096001,-4.715354,-0.16455168,9.401875,2.783536,1.4588841,-6.8951272,109.4078054
1779784367661,-1.4479501,7.8550506,4.21005,0.393525,-0.8982875,-0.2850375,-2.9363985,-0.4839239,2.3655143,-0.19319676,9.398339,2.7936158,1.4588841,-6.8951272,109.4078054
1779784367671,-0.48495004,9.41895,0.18900001,-0.2332,-0.50985,-0.5501375,-1.2547534,-1.5432887,1.4164343,-0.24262394,9.409045,2.7534297,1.4588841,-6.8951272,109.4078054
1779784367679,-4.0609503,10.192051,6.5020504,0.234025,-0.500225,-0.3947625,-0.2423261,0.009904861,-2.5644298,-0.2650912,9.406593,2.7597299,1.4588841,-6.8951272,109.4078054
1779784367698,5.34105,8.923051,-1.6540501,0.043449998,-0.51301247,-0.5724125,-3.795859,0.7854576,3.7423205,-0.1871224,9.427823,2.6928673,1.4588841,-6.8951272,109.4078054
1779784367709,-6.5160003,8.743051,10.108951,0.043449998,-0.51301247,-0.5724125,5.5281725,-0.5047722,-4.346917,-0.25218526,9.417343,2.7240496,1.4588841,-6.8951272,109.4078054
1779784367711,-1.539,12.288,-1.008,0.1115125,-0.713075,-0.4096125,-6.263815,-0.67429256,7.384901,-0.26830667,9.429595,2.6797667,1.4588841,-6.8951272,109.4078054
1779784367725,2.8879502,6.6330004,6.1399503,-0.36519998,-0.859925,-0.4181375,-1.2706933,2.858405,-3.6877666,-0.21401452,9.394609,2.8046255,1.4588841,-6.8951272,109.4078054
1779784367732,-3.5320501,10.674001,3.89895,0.30525,-0.863225,-0.379775,3.1019647,-2.761609,3.3353248,-0.26955986,9.399061,2.7848458,1.4588841,-6.8951272,109.4078054
1779784367741,-1.9300501,9.01395,1.31895,-0.1577125,-0.520575,-0.78842497,-3.2624903,1.2749395,1.1141043,-0.3228969,9.401234,2.7718096,1.4588841,-6.8951272,109.4078054
1779784367751,-2.8519502,10.041,3.348,0.10835,-0.9898625,-0.3755125,-1.6071532,-0.38728333,-1.4528595,-0.36775428,9.39981,2.7710521,1.4588841,-6.8951272,109.4078054
1779784367761,-0.67695004,6.6670504,-0.78705,-0.18425,-0.879175,-0.3617625,-2.484196,0.6411905,0.5769479,-0.39376056,9.399933,2.767059,1.4588841,-6.8951272,109.4078054
1779784367779,-7.3180504,8.635051,5.1730504,-0.08635,-0.517275,-0.4873,-0.28318948,-2.7328825,-3.554109,-0.45674717,9.39278,2.7816246,1.4588841,-6.8951272,109.4078054
1779784367780,-0.77295005,9.880951,2.5930502,0.1637625,-0.7451125,-0.2723875,-6.8613033,-0.75772953,2.3914258,-0.46584874,9.394292,2.7750044,1.4588841,-6.8951272,109.4078054
1779784367792,3.1300502,10.24695,-2.1430502,-0.31515,-0.8834375,-0.35433748,-0.3071013,0.48665905,-0.18195415,-0.44335607,9.411259,2.7206688,1.4588841,-6.8951272,109.4078054
1779784367802,-8.08695,5.32095,9.939,-0.146025,-0.240625,-0.690525,3.5734062,0.83569145,-4.863719,-0.503162,9.395687,2.7637448,1.4588841,-6.8951272,109.4078054
1779784367811,-9.29205,12.762001,3.5779502,0.2701875,-0.4225375,0.01925,-7.5837884,-4.074737,7.1752553,-0.5227429,9.402665,2.7362444,1.4588841,-6.8951272,109.4078054
1779784367825,9.819,11.95995,-1.4680501,-1.375E-4,-0.5534375,0.0884125,-8.769307,3.359336,0.8417058,-0.4930866,9.405337,2.7325618,1.4588841,-6.8951272,109.4078054
1779784367845,4.3710003,5.2180505,3.51795,-0.20019999,-0.206525,-0.789525,10.312087,2.554613,-4.200612,-0.5737401,9.403017,2.7247908,1.4588841,-6.8951272,109.4078054
1779784367845,-21.363,9.667951,8.37495,-0.1577125,-0.3246375,-0.7629875,-20.78926,0.2649336,5.65016,-0.5737401,9.403017,2.7247908,1.4588841,-6.8951272,109.4078054
1779784367856,-4.701,12.760051,-2.00895,0.17325,-0.664125,0.356675,-20.78926,0.2649336,5.65016,-0.58227766,9.405788,2.7133875,1.4588841,-6.8951272,109.4078054
1779784367867,19.89105,6.2719502,-1.056,-0.011825,-0.5588,-0.5841,-4.1187224,3.3542624,-4.7223377,-0.58338296,9.402988,2.722841,1.4588841,-6.8951272,109.4078054
1779784367879,-6.9640503,4.806,4.36305,0.2382875,-0.322575,-0.6406125,20.474434,-3.1310382,-3.778841,-0.7985005,9.364629,2.7993789,1.4588841,-6.8951272,109.4078054
1779784367886,-29.344952,12.89595,10.083,0.1254,-0.81427497,0.34595,-6.1655498,-4.5586286,1.5636711,-0.8176538,9.366216,2.7885206,1.4588841,-6.8951272,109.4078054
1779784367896,13.531951,9.967051,-4.29405,-0.0842875,-0.454575,-0.3575,14.257695,0.58754253,-7.06326,-0.7257444,9.379508,2.7692096,1.4588841,-6.8951272,109.4078054
1779784367905,19.150051,6.1759505,-3.31395,-0.19813749,0.0616,-0.9449,14.257695,0.58754253,-7.06326,-0.7611732,9.373935,2.7785537,1.4588841,-6.8951272,109.4078054
1779784367914,-25.678951,9.198001,13.687051,0.74909997,-0.0075625,-0.8342125,19.911224,-3.1979842,-6.0925035,-0.8565613,9.367365,2.7729385,1.4588841,-6.8951272,109.4078054
1779784367927,-17.68395,15.319951,-0.28395,-0.1970375,-0.70042497,0.5163125,-24.82239,-0.16936398,10.914112,-0.79761314,9.378254,2.7536461,1.4588841,-6.8951272,109.4078054
1779784367940,26.28,6.2860503,-2.77005,-0.1970375,-0.70042497,0.5163125,27.03186,-3.0916448,-5.5384293,-0.7518594,9.377695,2.7683792,1.4588841,-6.8951272,109.4078054
1779784367945,1.7670001,5.2920003,2.09295,-0.44825,0.1626625,-0.9906875,27.03186,-3.0916448,-5.5384293,-0.8221862,9.369827,2.7750182,1.4588841,-6.8951272,109.4078054
1779784367962,-33.931953,14.328001,9.987,0.100925,-0.746075,0.3405875,2.5891862,-4.077827,-0.6820681,-0.8597259,9.371123,2.7592256,1.4588841,-6.8951272,109.4078054
1779784367968,8.203051,9.562051,-1.64205,0.0221375,-0.6120125,0.4609,-33.072227,4.9568777,7.2277746,-0.7388532,9.386048,2.7434635,1.4588841,-6.8951272,109.4078054
1779784367981,21.19605,5.2489505,-4.0950003,0.1967625,-0.1150875,-0.7288875,8.941904,0.1760025,-4.3855133,-0.75007397,9.388528,2.7319129,1.4588841,-6.8951272,109.4078054
1779784367985,-22.378052,10.621051,10.189951,0.27335,-0.264,-0.78842497,21.946125,-4.1395774,-6.826913,-0.84059775,9.37891,2.7385845,1.4588841,-6.8951272,109.4078054
1779784367996,-16.656,13.564051,4.2840004,0.20845,-1.00265,0.8333875,-21.537455,1.2421408,7.4513664,-0.77783906,9.389679,2.7201645,1.4588841,-6.8951272,109.4078054
1779784368006,23.172,7.8190503,-4.36095,-0.28861248,-0.2981,0.0543125,23.895939,-1.572617,-7.089118,-0.723938,9.391667,2.728168,1.4588841,-6.8951272,109.4078054
1779784368015,2.84805,4.7839503,3.765,0.1148125,0.7044125,-1.0140625,23.895939,-1.572617,-7.089118,-0.7894696,9.384972,2.733028,1.4588841,-6.8951272,109.4078054
1779784368030,-30.37305,15.744,4.8229504,0.20845,-0.3598375,0.54175,3.6375198,-4.6010213,1.0319722,-0.7619187,9.391814,2.7173,1.4588841,-6.8951272,109.4078054
1779784368036,7.9900503,9.900001,-0.109950006,-0.2875125,-0.80465,0.748275,-29.611132,6.352186,2.1056504,-0.72771573,9.39744,2.7072062,1.4588841,-6.8951272,109.4078054
1779784368047,20.985,4.071,-5.2369504,-0.1662375,-0.125675,-0.642675,8.717766,0.5025606,-2.8171563,-0.69790393,9.401529,2.7008417,1.4588841,-6.8951272,109.4078054
1779784368056,-25.792952,11.9740505,8.221951,-0.2300375,-0.3097875,-0.35433748,21.682905,-5.330529,-7.937792,-0.69790393,9.401529,2.7008417,1.4588841,-6.8951272,109.4078054
1779784368066,-14.0119505,13.095,4.93095,0.119075,-0.51301247,0.73865,-25.009829,2.582119,5.511098,-0.71790135,9.399964,2.701054,1.4588841,-6.8951272,109.4078054
1779784368080,25.260002,6.98295,-7.93905,-0.5556375,0.4756125,-0.8204625,-13.294049,3.695036,2.229896,-0.6624211,9.406126,2.693768,1.4588841,-6.8951272,109.4078054
1779784368104,27.849,2.736,-11.96205,-0.0746625,-0.6353875,0.7855375,25.922422,-2.4231758,-10.632818,-0.46630877,9.420258,2.6854606,1.4588841,-6.8951272,109.4078054
1779784368110,33.307053,-1.64505,-2.36805,-0.15015,-0.419375,0.5396875,28.31531,-6.6842575,-14.647511,-0.46193948,9.413346,2.7103338,1.4588841,-6.8951272,109.4078054
1779784368114,-7.1269503,3.9870002,13.56,-0.4577375,0.5075125,-0.50435,33.768993,-11.058396,-5.078384,-0.46982875,9.409111,2.7236528,1.4588841,-6.8951272,109.4078054
1779784368126,-35.37105,16.549051,11.922001,0.2520375,0.43835,-1.2843875,-6.6571217,-5.4221106,10.836348,-0.5733841,9.408628,2.7054303,1.4588841,-6.8951272,109.4078054
1779784368126,-26.323051,14.42205,-5.091,0.232925,-0.469425,0.47685,-25.749668,5.013422,-7.7964306,-0.5733841,9.408628,2.7054303,1.4588841,-6.8951272,109.4078054
1779784368134,-9.27705,17.598001,0.016050002,0.232925,-0.469425,0.47685,-25.749668,5.013422,-7.7964306,-0.55860275,9.415867,2.6832457,1.4588841,-6.8951272,109.4078054
1779784368138,10.63395,10.141951,-0.70095,-0.0427625,-0.4417875,0.813175,-8.718448,8.182135,-2.6671956,-0.49840575,9.419753,2.6814659,1.4588841,-6.8951272,109.4078054
1779784368140,35.346,-5.5399504,-11.086051,-0.20019999,-0.683375,0.9483375,11.132356,0.72219753,-3.3824158,-0.44563425,9.417807,2.6975405,1.4588841,-6.8951272,109.4078054
1779784368145,23.670002,0.45600003,4.66305,-0.2534125,-0.3119875,0.3427875,35.791634,-14.957757,-13.783591,-0.4103829,9.416747,2.7068148,1.4588841,-6.8951272,109.4078054
1779784368152,-19.525951,12.657001,10.51605,0.14025,0.90337497,-0.9183625,24.080385,-8.960747,1.9562354,-0.44926587,9.414238,2.7093623,1.4588841,-6.8951272,109.4078054
1779784368170,-32.95005,15.925951,5.1010504,0.066825,0.169125,-1.02685,-19.076685,3.2427626,7.8066883,-0.4033888,9.422119,2.6891193,1.4588841,-6.8951272,109.4078054
1779784368170,-20.220001,17.077951,1.7860501,0.066825,0.169125,-1.02685,-19.076685,3.2427626,7.8066883,-0.4033888,9.422119,2.6891193,1.4588841,-6.8951272,109.4078054
1779784368170,-5.0479503,16.42395,5.3310003,0.066825,0.169125,-1.02685,-19.076685,3.2427626,7.8066883,-0.4033888,9.422119,2.6891193,1.4588841,-6.8951272,109.4078054
1779784368170,21.640951,0.91395,-8.466001,0.066825,0.169125,-1.02685,-19.076685,3.2427626,7.8066883,-0.4033888,9.422119,2.6891193,1.4588841,-6.8951272,109.4078054
1779784368178,36.960003,-3.3030002,-3.8839502,-0.047025,-0.713075,0.796125,22.04434,-8.508169,-11.15512,-0.40301937,9.422139,2.6891065,1.4588841,-6.8951272,109.4078054
1779784368185,0.46500003,3.5269501,12.456,-0.3705625,0.5011875,-0.2308625,37.36302,-12.72514,-6.5730567,-0.39637396,9.405255,2.7485363,1.4588841,-6.8951272,109.4078054
1779784368192,-31.812002,15.637951,13.26105,0.2371875,0.43614998,-1.2354375,0.861374,-5.8783054,9.707464,-0.4971686,9.407534,2.7242465,1.4588841,-6.8951272,109.4078054
1779784368192,-27.604052,16.707,-0.99600005,0.2371875,0.43614998,-1.2354375,0.861374,-5.8783054,9.707464,-0.4971686,9.407534,2.7242465,1.4588841,-6.8951272,109.4078054
1779784368199,-14.161051,21.849,-0.342,0.166925,-0.4492125,0.7907625,-13.672022,12.433626,-3.0405114,-0.48902854,9.415375,2.6985114,1.4588841,-6.8951272,109.4078054
1779784368202,8.814,10.36905,-5.42595,0.166925,-0.4492125,0.7907625,9.251089,0.94529724,-8.1040535,-0.4370894,9.423753,2.6781034,1.4588841,-6.8951272,109.4078054
1779784368205,36.60105,-6.8760004,-6.4110003,-0.390775,-0.7695875,1.00265,9.251089,0.94529724,-8.1040535,-0.37925446,9.422186,2.6923923,1.4588841,-6.8951272,109.4078054
1779784368210,19.69395,-2.2729502,12.835051,-0.50985,-0.2704625,0.2916375,36.980305,-16.298187,-9.103393,-0.34464258,9.41624,2.7177246,1.4588841,-6.8951272,109.4078054
1779784368215,-22.086,12.796051,11.778001,0.3254625,0.82568747,-1.001275,20.038593,-11.68919,10.117326,-0.3880904,9.415313,2.715079,1.4588841,-6.8951272,109.4078054
1779784368220,-31.006952,17.359951,-1.863,0.477675,0.20955,-0.9183625,-21.69791,3.3807383,9.062922,-0.44273412,9.419907,2.6906736,1.4588841,-6.8951272,109.4078054
1779784368229,-20.184,21.801,-3.2040002,-0.0396,-0.2619375,0.5567375,-30.564219,7.9400444,-4.5536737,-0.45574763,9.428289,2.658958,1.4588841,-6.8951272,109.4078054
1779784368236,-4.281,17.178001,0.37800002,-0.0396,-0.2619375,0.5567375,-19.728252,12.372711,-5.862958,-0.4322145,9.431179,2.6526282,1.4588841,-6.8951272,109.4078054
1779784368236,26.965052,-1.8919501,-7.5390005,-0.0396,-0.2619375,0.5567375,-19.728252,12.372711,-5.862958,-0.4322145,9.431179,2.6526282,1.4588841,-6.8951272,109.4078054
1779784368240,34.72995,-3.588,3.42705,-0.323675,-0.7216,0.697125,27.397266,-11.32313,-10.191628,-0.3314625,9.42773,2.6792607,1.4588841,-6.8951272,109.4078054
1779784368245,-4.3840504,6.69495,8.911051,-0.0565125,0.5841,-0.50545,35.061413,-13.01573,0.7477894,-0.36405104,9.411626,2.7311485,1.4588841,-6.8951272,109.4078054
1779784368250,-30.100052,16.743,3.9150002,0.4213,0.1722875,-1.2417625,-4.0199995,-2.7166758,6.179902,-0.42550388,9.415012,2.7105157,1.4588841,-6.8951272,109.4078054
1779784368258,-29.170052,17.35305,-0.70395005,0.43408749,0.31913748,-0.51713747,-28.705494,7.934643,-3.396195,-0.46455812,9.418407,2.692245,1.4588841,-6.8951272,109.4078054
1779784368261,-20.457,20.424002,7.63005,-0.031075,-0.2597375,0.1544125,-28.705494,7.934643,-3.396195,-0.46236148,9.420515,2.6852417,1.4588841,-6.8951272,109.4078054
1779784368266,8.847,8.3890505,-4.06605,0.0286,-0.7035875,0.80245,-19.994638,11.003487,4.9448085,-0.39293402,9.429741,2.6638322,1.4588841,-6.8951272,109.4078054
1779784368271,39.76905,-3.8580003,-11.512051,0.045649998,-0.962225,1.13135,40.09671,-13.290323,-14.175563,-0.32765785,9.432323,2.663512,1.4588841,-6.8951272,109.4078054
1779784368275,20.851051,-1.0129501,8.088,-0.4769875,-0.1885125,0.3342625,40.09671,-13.290323,-14.175563,-0.28817573,9.4283695,2.6820157,1.4588841,-6.8951272,109.4078054
1779784368280,-19.291052,10.40295,14.18805,0.07645,0.593725,-0.99605,-18.961058,0.97680473,11.5030365,-0.32999507,9.426146,2.6850135,1.4588841,-6.8951272,109.4078054
1779784368286,-32.15895,15.109051,4.2120004,0.247775,0.462825,-0.9438,-18.961058,0.97680473,11.5030365,-0.38596684,9.426568,2.6760533,1.4588841,-6.8951272,109.4078054
1779784368296,-27.64005,23.655,0.81600004,0.60115,-0.157575,-0.1871375,-31.772984,5.6824827,1.5359471,-0.38596684,9.426568,2.6760533,1.4588841,-6.8951272,109.4078054
1779784368296,-7.9840503,18.048,-3.4120502,0.60115,-0.157575,-0.1871375,-7.596629,8.608147,-6.040637,-0.38596684,9.426568,2.6760533,1.4588841,-6.8951272,109.4078054
1779784368303,31.030052,-2.6779501,-13.087951,-0.160875,-0.9301875,1.203675,-7.596629,8.608147,-6.040637,-0.32479018,9.441755,2.630239,1.4588841,-6.8951272,109.4078054
1779784368306,35.65905,-5.3359504,4.60995,-0.537625,-0.7929625,0.9164375,31.354843,-12.119705,-15.718189,-0.26151422,9.437796,2.6514144,1.4588841,-6.8951272,109.4078054
1779784368311,-4.0350003,5.151,16.20405,-0.1896125,0.7596875,-0.4085125,35.920563,-14.7737465,1.9585357,-0.27095717,9.429611,2.6794472,1.4588841,-6.8951272,109.4078054
1779784368316,-29.154001,14.218051,4.6990504,0.3117125,0.34155,-1.1130625,-3.764043,-4.278611,13.524603,-0.32744887,9.431138,2.6677322,1.4588841,-6.8951272,109.4078054
1779784368329,-26.938051,23.608952,-6.5809503,0.855525,0.2116125,-0.3936625,-28.826551,4.786913,2.0313182,-0.32744887,9.431138,2.6677322,1.4588841,-6.8951272,109.4078054
1779784368336,-18.47895,23.52795,-5.7979503,0.3883,0.0925375,0.288475,-26.577038,14.168345,-9.210598,-0.23335488,9.443449,2.6338615,1.4588841,-6.8951272,109.4078054
1779784368336,13.149,1.52505,-8.52795,0.3883,0.0925375,0.288475,-26.577038,14.168345,-9.210598,-0.23335488,9.443449,2.6338615,1.4588841,-6.8951272,109.4078054
1779784368336,36.454052,-8.85,4.2120004,0.3883,0.0925375,0.288475,-26.577038,14.168345,-9.210598,-0.23335488,9.443449,2.6338615,1.4588841,-6.8951272,109.4078054
1779784368341,5.7169504,-0.29700002,16.27605,-0.4107125,0.4987125,0.11715,36.68741,-18.29345,1.5781388,-0.20786008,9.432989,2.6731822,1.4588841,-6.8951272,109.4078054
1779784368346,-24.418951,14.25195,7.6519504,0.38005,0.3603875,-0.8864625,5.9248104,-9.729989,13.602868,-0.2504729,9.435488,2.660682,1.4588841,-6.8951272,109.4078054
1779784368351,-23.812952,21.01305,-4.59105,0.793925,0.5328125,-0.3458125,-24.168478,4.8164625,4.991268,-0.28339228,9.443896,2.6273408,1.4588841,-6.8951272,109.4078054
1779784368362,-20.865002,24.61305,-0.795,-0.15853749,-0.377025,0.76945,2.594795,0.6442032,-4.84349,-0.2138447,9.475847,2.51654,1.4588841,-6.8951272,109.4078054
1779784368365,2.3809502,10.12005,-2.32695,-0.4756125,-0.7580375,1.2728375,2.594795,0.6442032,-4.84349,-0.2138447,9.475847,2.51654,1.4588841,-6.8951272,109.4078054
1779784368367,37.48395,-6.4090505,-2.1379502,-0.4756125,-0.7580375,1.2728375,2.594795,0.6442032,-4.84349,-0.14769407,9.471139,2.5389194,1.4588841,-6.8951272,109.4078054
1779784368372,20.965952,-4.6129503,10.30095,-0.4862,-0.0312125,0.565125,37.631645,-15.88019,-4.6768694,-0.14769407,9.471139,2.5389194,1.4588841,-6.8951272,109.4078054
1779784368376,-18.69495,10.71195,12.657001,0.231,0.69135,-0.7693125,21.066355,-14.07767,7.735915,-0.13347323,9.464917,2.5627944,1.4588841,-6.8951272,109.4078054
1779784368381,-30.358051,16.68495,-0.342,0.518375,0.7403,-0.6906625,-18.561478,1.2470331,10.094206,-0.13347323,9.464917,2.5627944,1.4588841,-6.8951272,109.4078054
1779784368386,-27.031952,24.361052,-3.1939502,0.62479997,0.154,0.040425,-30.17627,7.214859,-2.8826125,-0.18178251,9.470091,2.5406125,1.4588841,-6.8951272,109.4078054
1779784368391,-9.915001,17.50395,-4.0090504,0.1373625,-0.02915,0.7088125,-26.839258,14.88227,-5.7011356,-0.17087328,9.483138,2.49225,1.4588841,-6.8951272,109.4078054
1779784368399,30.888002,-3.9400501,-8.02005,-0.37345,-0.641025,1.4111625,-9.744127,8.020812,-6.5013003,-0.17087328,9.483138,2.49225,1.4588841,-6.8951272,109.4078054
1779784368402,35.93505,-8.241,5.9610004,-0.6480375,-0.477125,1.186625,30.99167,-13.420819,-10.524977,-0.031893853,9.474063,2.532092,1.4588841,-6.8951272,109.4078054
1779784368406,-3.7020001,4.4869504,14.764951,0.1788875,0.749925,-0.776875,-3.6671743,-4.9791646,12.203337,-0.034825813,9.466115,2.561614,1.4588841,-6.8951272,109.4078054
1779784368411,-30.985952,14.613001,7.45305,0.32999998,0.8287125,-0.8790375,-3.6671743,-4.9791646,12.203337,-0.08493629,9.469143,2.5492187,1.4588841,-6.8951272,109.4078054
1779784368416,-31.678051,24.56895,-1.09905,0.7269625,0.5402375,-0.2149125,-30.901016,5.143858,4.9038315,-0.11421587,9.477454,2.5169828,1.4588841,-6.8951272,109.4078054
1779784368428,-20.091002,22.491001,-4.38,0.4332625,0.3381125,0.5597625,-31.563835,15.091496,-3.6160328,-0.038971536,9.48495,2.4909067,1.4588841,-6.8951272,109.4078054
1779784368428,18.135,0.78900003,-8.884951,-0.7183,-0.6367625,1.55375,18.173971,-8.69595,-11.375857,-0.038971536,9.48495,2.4909067,1.4588841,-6.8951272,109.4078054
1779784368437,39.90105,-8.30595,5.46,-0.7183,-0.6367625,1.55375,18.173971,-8.69595,-11.375857,0.04498948,9.477155,2.520303,1.4588841,-6.8951272,109.4078054
1779784368440,9.56295,-0.108,18.336,-0.7183,-0.6367625,1.55375,39.85606,-17.783104,2.939697,0.047363516,9.475871,2.525081,1.4588841,-6.8951272,109.4078054
1779784368445,-21.44205,13.303051,7.4100003,0.7088125,0.98408747,-0.5193375,9.515587,-9.583871,15.81092,0.02499211,9.47631,2.5237532,1.4588841,-6.8951272,109.4078054
1779784368451,-24.625051,24.421051,-6.5160003,0.189475,0.3625875,0.6450125,-24.639698,14.933184,-8.996033,0.01464695,9.487867,2.480033,1.4588841,-6.8951272,109.4078054
1779784368470,-22.44795,26.935951,-6.2410502,0.01705,1.0393625,-0.0116875,34.89291,-19.604336,2.3214712,0.12125848,9.51837,2.357192,1.4588841,-6.8951272,109.4078054
1779784368470,2.9860501,6.4420505,-5.64405,0.01705,1.0393625,-0.0116875,34.89291,-19.604336,2.3214712,0.12125848,9.51837,2.357192,1.4588841,-6.8951272,109.4078054
1779784368470,35.085003,-10.096951,4.7179503,0.01705,1.0393625,-0.0116875,34.89291,-19.604336,2.3214712,0.12125848,9.51837,2.357192,1.4588841,-6.8951272,109.4078054
1779784368474,13.40505,-3.8700001,17.922,0.01705,1.0393625,-0.0116875,34.89291,-19.604336,2.3214712,0.2008838,9.502911,2.4134538,1.4588841,-6.8951272,109.4078054
1779784368478,-21.070951,12.56295,9.958051,0.7173375,1.026575,-0.40535,13.204166,-13.3729105,15.508547,0.16700989,9.51032,2.3867002,1.4588841,-6.8951272,109.4078054
1779784368480,-23.109001,20.866951,-7.0860004,0.90255,0.6626125,0.269225,-21.23796,3.0526304,7.5713506,0.1599097,9.521619,2.3417125,1.4588841,-6.8951272,109.4078054
1779784368484,-20.991001,26.056952,-5.604,0.2619375,0.666875,0.73755,-21.173445,16.53088,-7.925873,0.18244272,9.526071,2.3218725,1.4588841,-6.8951272,109.4078054
1779784368495,-4.1860504,12.52995,-4.99305,-0.4203375,-0.052525,1.32495,-21.173445,16.53088,-7.925873,0.22605479,9.527308,2.3129408,1.4588841,-6.8951272,109.4078054
1779784368500,33.62805,-8.44005,-1.6210501,-0.235125,1.110725,0.3650625,33.322174,-17.957417,-3.9655266,0.3058777,9.517366,2.3444765,1.4588841,-6.8951272,109.4078054
1779784368503,23.11395,-8.059051,12.8869505,-0.235125,1.110725,0.3650625,33.322174,-17.957417,-3.9655266,0.3058777,9.517366,2.3444765,1.4588841,-6.8951272,109.4078054
1779784368505,-16.113,10.551001,11.704051,0.60555,1.1,-0.4544375,22.78181,-17.57,10.520109,0.2987316,9.516353,2.3495088,1.4588841,-6.8951272,109.4078054
1779784368510,-25.846052,18.91995,-6.195,0.9461375,0.9477875,0.141625,-16.411732,1.034648,9.354542,0.28365064,9.527059,2.307618,1.4588841,-6.8951272,109.4078054
1779784368514,-22.050001,26.22195,-7.29195,0.2586375,0.6892875,0.6991875,-26.129704,9.392892,-8.502618,0.3031506,9.531837,2.28529,1.4588841,-6.8951272,109.4078054
1779784368520,-10.2310505,18.550951,0.70095,-0.3628625,0.1401125,1.2898875,-22.353151,16.690113,-9.57724,0.35032794,9.5279875,2.294584,1.4588841,-6.8951272,109.4078054
1779784368527,29.325,-2.841,-4.13805,-0.4819375,-0.4409625,1.711325,-10.581378,9.022964,-1.593634,0.434348,9.519134,2.3168607,1.4588841,-6.8951272,109.4078054
1779784368533,38.13105,-8.706,1.5990001,-0.4819375,-0.4409625,1.711325,28.890654,-12.360134,-6.4549108,0.43461338,9.519106,2.3169227,1.4588841,-6.8951272,109.4078054
1779784368535,-0.303,5.01195,8.500051,0.3097875,1.159675,-0.53845,37.696438,-18.225105,-0.71792257,0.46564797,9.389105,2.792536,1.4588841,-6.8951272,109.4078054
1779784368540,-29.659052,16.105051,1.1010001,0.60775,1.28205,-0.466125,-0.76864797,-4.377155,5.707515,0.42169046,9.398069,2.7692714,1.4588841,-6.8951272,109.4078054
1779784368545,-31.707,24.124052,-4.74405,0.4054875,0.7286125,0.2831125,-30.080742,6.7069817,-1.6682713,0.4144646,9.405454,2.7451873,1.4588841,-6.8951272,109.4078054
1779784368550,-22.534052,22.261051,1.0390501,-0.14575,0.324225,1.0866625,-22.983227,12.857965,-1.7087874,0.44917527,9.403086,2.7478375,1.4588841,-6.8951272,109.4078054
1779784368555,15.462001,2.8830001,-4.3510504,-0.4277625,-0.3760625,1.85075,-22.983227,12.857965,-1.7087874,0.54387397,9.394147,2.7612662,1.4588841,-6.8951272,109.4078054
1779784368561,43.54605,-7.49205,-1.7170501,-0.4437125,0.2487375,1.4675375,14.918127,-6.5111465,-7.1123166,0.62528706,9.383131,2.7814138,1.4588841,-6.8951272,109.4078054
1779784368566,21.100052,-1.8060001,7.4719505,0.0820875,1.15225,0.0457875,42.920765,-16.875181,-4.4984636,0.6341884,9.380012,2.7899082,1.4588841,-6.8951272,109.4078054
1779784368571,-17.07105,10.9800005,6.3150005,0.31405,1.353275,-0.626725,20.465864,-11.186011,4.682042,0.58592385,9.385651,2.7814846,1.4588841,-6.8951272,109.4078054
1779784368579,-31.98195,21.111,0.54105,0.1661,0.6446,0.62479997,-17.656975,1.5943499,3.533516,0.5562901,9.393878,2.7597067,1.4588841,-6.8951272,109.4078054
1779784368581,-31.069952,26.43,1.9590001,0.1661,0.6446,0.62479997,-32.538242,11.717122,-2.2186568,0.56746936,9.39658,2.7482102,1.4588841,-6.8951272,109.4078054
1779784368586,-3.9150002,12.906,-5.604,-0.2479125,-0.11,1.5719,-31.63742,17.03342,-0.7892101,0.6204761,9.397023,2.73521,1.4588841,-6.8951272,109.4078054
1779784368590,37.659,-4.335,-5.5750504,-0.5214,-0.115225,1.85075,-4.535476,3.508977,-8.3392105,0.7136171,9.384418,2.7556999,1.4588841,-6.8951272,109.4078054
1779784368597,34.45005,-5.7960005,5.3500504,-0.267025,0.83393747,0.6215,36.945385,-13.719418,-8.33075,0.7516434,9.375201,2.7768753,1.4588841,-6.8951272,109.4078054
1779784368604,-0.38505003,6.09,6.6670504,0.2671625,1.2544125,-0.465025,33.698406,-15.171202,2.5731752,0.67955726,9.364757,2.830185,1.4588841,-6.8951272,109.4078054
1779784368612,-24.469051,18.23205,-2.0970001,0.647075,1.2012,-0.3702875,-1.0646073,-3.2747564,3.8368654,0.6679981,9.370572,2.8136353,1.4588841,-6.8951272,109.4078054
1779784368612,-30.616951,27.357,-2.181,0.647075,1.2012,-0.3702875,-1.0646073,-3.2747564,3.8368654,0.6679981,9.370572,2.8136353,1.4588841,-6.8951272,109.4078054
1779784368616,-19.878,20.067001,-2.265,-0.334125,0.194425,1.0014125,-31.284948,17.986427,-4.9946356,0.6985978,9.36597,2.8215218,1.4588841,-6.8951272,109.4078054
1779784368621,21.112051,-0.32295,-1.4989501,-0.6469375,-0.26221249,1.777325,-20.576597,10.701032,-5.086522,0.78438455,9.351092,2.8481934,1.4588841,-6.8951272,109.4078054
1779784368627,37.28805,-8.64795,6.9090004,-0.4895,0.4742375,1.0514625,20.327667,-9.674043,-4.3471437,0.84413147,9.336811,2.8778105,1.4588841,-6.8951272,109.4078054
1779784368637,11.7310505,2.40105,10.032001,0.1948375,0.9733625,-0.172425,36.44392,-17.98476,4.03119,0.8451646,9.332435,2.891669,1.4588841,-6.8951272,109.4078054
1779784368637,-15.604951,14.629951,1.4440501,0.534325,0.9383,0.0309375,-16.450115,5.297516,-1.447619,0.8451646,9.332435,2.891669,1.4588841,-6.8951272,109.4078054
1779784368644,-24.72105,27.556051,-3.6010501,0.534325,0.9383,0.0309375,-16.450115,5.297516,-1.447619,0.8051801,9.347196,2.8551714,1.4588841,-6.8951272,109.4078054
1779784368648,-22.539001,25.089,-4.64295,-0.0286,0.424325,0.632225,-25.52623,18.208855,-6.4562216,0.8227508,9.347951,2.847681,1.4588841,-6.8951272,109.4078054
1779784368651,9.955951,2.8249502,-8.22105,-0.5649875,-0.2270125,1.4122624,-23.361752,15.74105,-7.490631,0.90685415,9.342643,2.8395495,1.4588841,-6.8951272,109.4078054
1779784368656,34.47105,-8.29905,6.2190003,-0.86625,0.30195,1.088725,9.049097,-6.5176926,-11.0606,0.9667124,9.324381,2.879547,1.4588841,-6.8951272,109.4078054
1779784368661,9.91005,-1.5780001,13.182,0.0298375,0.8828875,-0.1841125,33.504337,-17.623432,3.3394532,0.9693273,9.315773,2.906404,1.4588841,-6.8951272,109.4078054
1779784368668,-14.748001,11.325001,8.361,0.516175,1.2309,-0.2585,8.940723,-10.893773,10.275597,0.9343644,9.32279,2.8953328,1.4588841,-6.8951272,109.4078054
1779784368671,-21.097052,25.378952,-3.381,0.7557,0.7530875,0.042625,-15.682365,2.0022106,5.4656672,0.9190885,9.334564,2.8620896,1.4588841,-6.8951272,109.4078054
1779784368678,-21.585001,30.26205,-2.01795,0.142725,0.616825,0.6205375,-22.01614,16.044388,-6.2430897,0.9304557,9.336761,2.8512354,1.4588841,-6.8951272,109.4078054
1779784368682,7.52505,8.644951,-8.835,-0.4585625,-0.2993375,1.3761,-22.515457,20.92529,-4.8691854,0.9973393,9.332751,2.8417356,1.4588841,-6.8951272,109.4078054
1779784368687,41.769,-8.169001,-0.54300004,-0.9076375,-0.02695,1.2472625,6.527711,-0.6878004,-11.676736,1.0663494,9.314129,2.8775504,1.4588841,-6.8951272,109.4078054
1779784368691,17.919,-4.26795,16.42695,-0.2052875,1.1235125,-0.21285,40.702652,-17.48313,-3.4205503,1.063243,9.305246,2.9072816,1.4588841,-6.8951272,109.4078054
1779784368698,-18.675001,13.011001,12.981001,0.5374875,1.08625,-0.7299875,16.855757,-13.573196,13.519669,1.0122405,9.314905,2.8945327,1.4588841,-6.8951272,109.4078054
1779784368704,-25.23105,25.62795,-8.710051,1.1334125,0.667975,-0.17985,-19.687243,3.6960955,10.086468,0.9851102,9.331632,2.8496678,1.4588841,-6.8951272,109.4078054
1779784368712,-21.894001,31.768951,-9.63195,0.1533125,0.43065,0.44275,-26.21616,16.296318,-11.559718,1.0331448,9.331802,2.8320453,1.4588841,-6.8951272,109.4078054
1779784368712,-0.16905001,12.979951,-2.1019502,0.1533125,0.43065,0.44275,-26.21616,16.296318,-11.559718,1.0331448,9.331802,2.8320453,1.4588841,-6.8951272,109.4078054
1779784368716,39.730953,-10.95195,-0.058950003,-0.8746375,-0.51755,1.3143625,-1.2021948,3.6481485,-4.9339952,1.1055784,9.311649,2.8707643,1.4588841,-6.8951272,109.4078054
1779784368721,33.276,-8.986051,11.496,-0.2223375,0.7137625,0.076725,38.625374,-20.2636,-2.9297142,1.1224002,9.302619,2.893423,1.4588841,-6.8951272,109.4078054
1779784368731,-9.61995,9.844951,10.449,0.6183375,1.011725,-1.0503625,32.153603,-18.28867,8.602577,1.0610675,9.313252,2.8823347,1.4588841,-6.8951272,109.4078054
1779784368731,-29.671051,22.728,-4.116,0.9238625,0.87119997,-0.66825,-10.681018,0.5316982,7.5666656,1.0086706,9.32929,2.84909,1.4588841,-6.8951272,109.4078054
1779784368737,-27.247051,29.494051,-10.399051,0.305525,0.2635875,0.0628375,-30.679722,13.39871,-6.9650903,0.9971438,9.338203,2.8238363,1.4588841,-6.8951272,109.4078054
1779784368747,-10.474951,17.81805,-0.71295005,-0.6128375,-0.2674375,0.859925,-28.244196,20.155848,-13.222887,1.0967396,9.3098755,2.8798923,1.4588841,-6.8951272,109.4078054
1779784368747,29.149952,-7.1800504,2.8159502,-0.3586,0.0815375,0.4162125,28.053213,-16.489925,-0.063942194,1.0967396,9.3098755,2.8798923,1.4588841,-6.8951272,109.4078054
1779784368753,40.464,-11.335951,9.486,-0.3586,0.0815375,0.4162125,28.053213,-16.489925,-0.063942194,1.1328117,9.298136,2.9037557,1.4588841,-6.8951272,109.4078054
1779784368759,5.952,6.846,7.9609504,0.764225,0.8680375,-0.89925,4.8299522,-2.4461188,5.033849,1.1220479,9.292119,2.9271016,1.4588841,-6.8951272,109.4078054
1779784368763,-24.08595,24.201,-5.2590003,0.89402497,0.8276125,-0.93747497,4.8299522,-2.4461188,5.033849,1.0616447,9.3110485,2.889233,1.4588841,-6.8951272,109.4078054
1779784368767,-25.02,28.89495,-13.023001,0.34705,0.14973749,-0.2618,-25.147596,14.889952,-8.148233,1.0356112,9.322013,2.8632104,1.4588841,-6.8951272,109.4078054
1779784368772,-14.235001,20.272951,4.572,-0.7555625,-0.12705,0.4406875,-26.05561,19.572937,-15.886211,1.0479622,9.312612,2.8891952,1.4588841,-6.8951272,109.4078054
1779784368777,14.125951,-3.4680002,7.6759505,-0.150975,-0.3163875,0.44275,13.020107,-12.759128,4.7395506,1.1058432,9.291127,2.9364,1.4588841,-6.8951272,109.4078054
1779784368782,36.71595,-10.13805,5.0869503,-0.150975,-0.3163875,0.44275,13.020107,-12.759128,4.7395506,1.1441826,9.282611,2.9486258,1.4588841,-6.8951272,109.4078054
1779784368787,8.845051,5.33505,4.3369503,0.60665,0.716925,-0.790625,35.571766,-19.420662,2.1383245,1.1866004,9.270098,2.971139,1.4588841,-6.8951272,109.4078054
1779784368794,-23.214,21.181051,0.82395005,0.534325,0.535975,-0.9684125,7.65845,-3.9350476,1.3658113,1.1283219,9.285855,2.944515,1.4588841,-6.8951272,109.4078054
1779784368800,-20.857052,21.918001,-6.8899503,0.3278,0.0273625,-0.2330625,-24.342323,11.895196,-2.120565,1.1052037,9.29398,2.9276037,1.4588841,-6.8951272,109.4078054
1779784368804,-8.596951,18.654001,0.23400001,-0.3361875,-0.214225,0.2979625,-21.962255,12.624022,-9.817554,1.1052037,9.29398,2.9276037,1.4588841,-6.8951272,109.4078054
1779784368814,7.39095,5.196,3.8220003,-0.4778125,-0.5537125,0.534325,-9.711739,9.36253,-2.6979287,1.1147885,9.2914715,2.9319286,1.4588841,-6.8951272,109.4078054
1779784368814,31.377,-7.7460003,-3.1729503,-0.4778125,-0.5537125,0.534325,-9.711739,9.36253,-2.6979287,1.1147885,9.2914715,2.9319286,1.4588841,-6.8951272,109.4078054
1779784368819,17.68905,0.16905001,1.71405,0.1203125,0.456225,-0.5979875,29.70596,-16.863607,-6.3740835,1.662899,9.118354,3.2032478,1.4588841,-6.8951272,109.4078054
1779784368827,-21.06105,17.001001,6.282,0.3289,0.49774998,-1.1950125,16.026152,-8.949304,-1.4891977,1.6007153,9.133489,3.1917818,1.4588841,-6.8951272,109.4078054
1779784368828,-25.758001,18.63495,-0.984,0.337425,0.20075,-0.400125,-22.661766,7.8675127,3.0902183,1.5670524,9.143264,3.1804848,1.4588841,-6.8951272,109.4078054
1779784368837,-9.867001,19.51095,-2.16405,-0.064899996,-0.4090625,0.171325,-27.325054,9.491687,-4.164485,1.5689684,9.145522,3.1730342,1.4588841,-6.8951272,109.4078054
1779784368837,-0.744,13.8490505,6.0060005,-0.2787125,-0.315425,0.305525,-2.3129685,4.7035284,2.8329663,1.5689684,9.145522,3.1730342,1.4588841,-6.8951272,109.4078054
1779784368840,23.48805,-1.9740001,-1.84395,-0.363825,-0.6590375,0.5236,-2.3129685,4.7035284,2.8329663,1.6119486,9.132382,3.1892946,1.4588841,-6.8951272,109.4078054
1779784368846,33.645,-2.766,-3.1660502,-0.0638,-0.58245,0.3991625,21.876102,-11.106382,-5.0332446,1.646265,9.125966,3.1901329,1.4588841,-6.8951272,109.4078054
1779784368850,-3.18405,9.95505,3.0630002,0.1469875,0.3848625,-0.7299875,31.998735,-11.891966,-6.356183,1.5750715,9.142518,3.178668,1.4588841,-6.8951272,109.4078054
1779784368855,-27.453001,18.049952,6.5929503,0.1555125,0.4104375,-1.250425,-4.7591214,0.8125324,-0.11566782,1.5096005,9.155814,3.1721535,1.4588841,-6.8951272,109.4078054
1779784368863,-18.12705,17.059052,-1.9699501,0.297,0.0848375,-0.544775,-28.9626,8.894137,3.4207969,1.4717373,9.164976,3.1634805,1.4588841,-6.8951272,109.4078054
1779784368872,-9.73005,17.851051,5.307,-0.0510125,-0.4005375,0.0341,-19.598787,7.8940754,-5.1334305,1.5724788,9.1400385,3.1870677,1.4588841,-6.8951272,109.4078054
1779784368873,7.7410502,6.2760005,3.2760003,-0.1095875,-0.951775,0.6821375,6.1685715,-2.864038,0.088932514,1.5724788,9.1400385,3.1870677,1.4588841,-6.8951272,109.4078054
1779784368882,37.482002,-4.71105,-8.154,-0.1095875,-0.951775,0.6821375,6.1685715,-2.864038,0.088932514,1.6547792,9.12609,3.1853712,1.4588841,-6.8951272,109.4078054
1779784368882,21.232052,3.7860003,-5.2249503,-0.1095875,-0.951775,0.6821375,6.1685715,-2.864038,0.088932514,1.6547792,9.12609,3.1853712,1.4588841,-6.8951272,109.4078054
1779784368886,-17.52795,14.616001,5.4870005,0.2044625,0.538175,-1.2354375,-19.128885,5.478468,2.3069232,1.6009347,9.137533,3.1800773,1.4588841,-6.8951272,109.4078054
1779784368892,-24.928951,14.877001,6.4470005,-0.201025,0.27101249,-1.02685,-19.128885,5.478468,2.3069232,1.5408968,9.144941,3.188431,1.4588841,-6.8951272,109.4078054
1779784368897,-15.169051,19.62405,3.8029501,0.2352625,-0.2184875,-0.3394875,-26.469849,5.7320595,3.2585695,1.5171885,9.15167,3.1804812,1.4588841,-6.8951272,109.4078054
1779784368902,-4.131,14.998951,-1.9540501,0.1043625,-0.3834875,0.1447875,-16.68624,10.47238,0.62246895,1.5193133,9.157646,3.1622138,1.4588841,-6.8951272,109.4078054
1779784368906,28.611002,-0.22800002,-10.83195,-0.103125,-0.91135,0.5577,-5.6503134,5.841305,-5.116264,1.5523425,9.154143,3.1563113,1.4588841,-6.8951272,109.4078054
1779784368913,33.856052,-2.30205,-1.0000501,-0.2946625,-0.6430875,0.3650625,27.058659,-9.382143,-13.988261,1.5894588,9.145817,3.1619658,1.4588841,-6.8951272,109.4078054
1779784368917,-4.90695,7.9189506,11.074051,-0.2308625,0.2806375,-0.9257875,32.266594,-11.447866,-4.162016,1.4880537,9.151167,3.1956573,1.4588841,-6.8951272,109.4078054
1779784368921,-22.146002,13.354051,11.505,-0.0339625,0.26565,-1.266375,-6.395004,-1.2322164,7.8783937,1.4880837,9.151186,3.1955888,1.4588841,-6.8951272,109.4078054
1779784368927,-16.05105,17.02305,-1.7839501,0.47575,-0.0121,-0.60445,-23.634085,4.2028646,8.309411,1.4496199,9.162459,3.1809337,1.4588841,-6.8951272,109.4078054
1779784368933,-14.115001,22.063951,1.00995,0.29273748,-0.296175,-0.25959998,-17.50067,7.860591,-4.964884,1.4373227,9.171902,3.1592264,1.4588841,-6.8951272,109.4078054
1779784368937,6.9619503,5.8669505,-3.0649502,-0.1287,-0.51975,0.1926375,-15.552323,12.89205,-2.1492763,1.6058252,9.203086,2.98244,1.4588841,-6.8951272,109.4078054
1779784368941,35.884052,-4.563,-1.17495,-0.350075,-1.0124125,0.566225,34.23896,-13.756899,-4.164316,1.6450925,9.193898,2.989366,1.4588841,-6.8951272,109.4078054
1779784368946,13.156051,2.35995,5.8309503,-0.24365,-0.18975,-0.319275,34.23896,-13.756899,-4.164316,1.6692771,9.182184,3.0118773,1.4588841,-6.8951272,109.4078054
1779784368952,-15.34605,12.823951,7.827,0.2756875,0.2699125,-1.2397,11.4867735,-6.822234,2.819073,1.6118641,9.194569,3.0053606,1.4588841,-6.8951272,109.4078054
1779784368956,-16.257,16.258951,-2.29095,0.3598375,0.0985875,-0.89925,-16.957914,3.6293821,4.8216395,1.5602984,9.207894,2.991748,1.4588841,-6.8951272,109.4078054
1779784368963,-20.220001,22.588951,5.28105,0.239525,-0.2195875,-0.55439997,-17.817299,7.051057,-5.282698,1.5337013,9.218324,2.9733253,1.4588841,-6.8951272,109.4078054
1779784368967,-10.531951,15.231001,8.575951,-0.1414875,-0.2706,-0.154275,-21.753702,13.370627,2.307725,1.5207936,9.21942,2.9765546,1.4588841,-6.8951272,109.4078054
1779784368978,30.46005,-3.2929502,-5.9490004,-0.1882375,-1.114575,0.5842375,-12.052745,6.0115805,5.5993958,1.5539126,9.21305,2.97917,1.4588841,-6.8951272,109.4078054
1779784368980,32.84505,-1.02495,-1.266,-0.087175,-0.7112875,0.354475,28.906137,-12.5060005,-8.92817,1.5927556,9.207781,2.9749465,1.4588841,-6.8951272,109.4078054
1779784368984,-3.9769502,10.092,5.00295,0.240625,0.21779999,-1.332375,31.252295,-10.232731,-4.240947,1.5022703,9.22343,2.9735396,1.4588841,-6.8951272,109.4078054
1779784368989,-17.455952,16.584002,2.634,0.3491125,0.1230625,-0.988625,-5.4792204,0.8685703,2.0294106,1.4473227,9.235639,2.9628751,1.4588841,-6.8951272,109.4078054
1779784368995,-18.955952,24.45495,0.96000004,0.31405,-0.230175,-0.63002497,-18.903275,7.348363,-0.32887506,1.4159067,9.247348,2.9414566,1.4588841,-6.8951272,109.4078054
1779784369001,-19.18305,21.08205,8.63595,-0.2776125,-0.51975,-0.1755875,-20.371859,15.2076025,-1.9814565,1.4068664,9.2478895,2.9440901,1.4588841,-6.8951272,109.4078054
1779784369005,11.307,-1.914,11.160001,-0.7874625,-1.132725,0.5267625,9.856558,-11.141752,8.174162,1.450442,9.227752,2.9858384,1.4588841,-6.8951272,109.4078054
1779784369009,34.938004,-9.22095,15.627001,-0.0903375,-0.5451875,0.1639,9.856558,-11.141752,8.174162,1.4786016,9.220183,2.9953911,1.4588841,-6.8951272,109.4078054
1779784369014,8.20005,7.4880004,0.771,1.2313125,0.177375,-1.0791,33.4594,-18.441133,12.63161,1.4993072,9.233524,2.9435527,1.4588841,-6.8951272,109.4078054
1779784369020,-12.55605,22.29195,-19.89195,1.0844625,-0.0471625,-1.12805,6.700743,-1.7455239,-2.1725526,1.4041543,9.26928,2.8773534,1.4588841,-6.8951272,109.4078054
1779784369034,-17.775002,23.437052,-7.2229505,-0.2542375,-0.1791625,-0.80025,-13.960205,13.02267,-22.769304,1.4035096,9.269569,2.8767426,1.4588841,-6.8951272,109.4078054
1779784369044,-24.559952,18.493052,23.526001,-0.904475,-0.2941125,-0.3713875,-25.945232,9.23441,20.605566,1.3852804,9.258641,2.9204352,1.4588841,-6.8951272,109.4078054
1779784369044,2.63205,2.9280002,22.351952,0.5608625,0.23375,-0.88,38.546673,-18.175692,-11.185435,1.3852804,9.258641,2.9204352,1.4588841,-6.8951272,109.4078054
1779784369044,39.931953,-8.91705,-8.265,0.5608625,0.23375,-0.88,38.546673,-18.175692,-11.185435,1.3852804,9.258641,2.9204352,1.4588841,-6.8951272,109.4078054
1779784369044,24.285002,6.47805,-6.1140003,0.5608625,0.23375,-0.88,38.546673,-18.175692,-11.185435,1.4321196,9.265308,2.8763685,1.4588841,-6.8951272,109.4078054
1779784369050,-21.003,23.544,9.9529505,0.206525,0.1529,-1.7686625,22.852882,-2.7872581,-8.990369,1.349662,9.282301,2.8614156,1.4588841,-6.8951272,109.4078054
1779784369055,-28.878002,22.897951,14.566051,-0.01155,-0.3994375,-0.9428375,-22.352663,14.2617,7.0915346,1.2962732,9.289507,2.862711,1.4588841,-6.8951272,109.4078054
1779784369063,-3.7350001,11.866051,7.1179504,0.1012,-0.8804125,0.009625,-30.174274,13.608444,11.70334,1.2918907,9.291911,2.8568845,1.4588841,-6.8951272,109.4078054
1779784369066,14.40795,4.83195,7.26105,0.074525,-0.84645,-0.0276375,-5.0268908,2.5741396,4.261066,1.3165613,9.28908,2.8548267,1.4588841,-6.8951272,109.4078054
1779784369070,16.60695,0.92805004,-0.69900006,0.37785,-0.6516125,-0.4681875,13.091389,-4.4571295,4.4062233,1.3206636,9.2932825,2.8392181,1.4588841,-6.8951272,109.4078054
1779784369075,9.58005,7.3680005,-3.4069502,0.634425,-0.0875875,-0.8822,15.286287,-8.365232,-3.5382183,1.3206636,9.2932825,2.8392181,1.4588841,-6.8951272,109.4078054
1779784369080,-18.28005,20.721,3.6139503,0.3746875,-0.1205875,-1.4152875,8.2636,-1.9415708,-6.1942844,1.2546263,9.324612,2.7654889,1.4588841,-6.8951272,109.4078054
1779784369085,-24.297,16.969952,10.474951,-0.087175,-0.5027,-0.6810375,-19.534676,11.396389,0.8484614,1.2159972,9.331051,2.7610233,1.4588841,-6.8951272,109.4078054
1779784369090,-0.186,5.1049504,9.252001,-0.023375,-1.0570999,-0.0595375,-25.512999,7.6389008,7.7139273,1.229711,9.28725,2.899174,1.4588841,-6.8951272,109.4078054
1779784369107,9.1369505,8.166,6.7920003,0.5226375,-0.7357625,-0.185075,-1.415711,-4.182299,6.352827,1.2415277,9.319063,2.7899942,1.4588841,-6.8951272,109.4078054
1779784369107,7.0150504,13.299001,-6.4110003,0.5226375,-0.7357625,-0.185075,-1.415711,-4.182299,6.352827,1.2415277,9.319063,2.7899942,1.4588841,-6.8951272,109.4078054
1779784369107,17.79195,7.32105,-28.273052,0.5226375,-0.7357625,-0.185075,-1.415711,-4.182299,6.352827,1.2415277,9.319063,2.7899942,1.4588841,-6.8951272,109.4078054
1779784369110,7.2400503,8.41005,-9.56295,-0.3788125,-0.09185,-1.003475,16.550423,-1.998013,-31.063046,1.2134917,9.327683,2.7734723,1.4588841,-6.8951272,109.4078054
1779784369115,-27.067951,11.91195,19.14105,-0.5831375,-0.148225,-1.38985,6.026559,-0.91763306,-12.336422,1.1485683,9.328685,2.7976463,1.4588841,-6.8951272,109.4078054
1779784369120,-22.95795,7.6729503,24.004951,-0.0669625,-0.6356625,-0.4533375,-28.21652,2.5832653,16.343405,1.1229703,9.32829,2.8093338,1.4588841,-6.8951272,109.4078054
1779784369132,0.58395004,10.003051,7.9870505,0.7195375,-1.04115,0.033,-24.080921,-1.6553397,21.195618,1.1497251,9.345285,2.741199,1.4588841,-6.8951272,109.4078054
1779784369133,7.8480005,17.574001,-5.9010005,0.7195375,-1.04115,0.033,-24.080921,-1.6553397,21.195618,1.1497251,9.345285,2.741199,1.4588841,-6.8951272,109.4078054
1779784369137,24.733051,11.46405,-24.891,-0.089237496,-0.6868125,-0.51713747,6.6982756,8.228716,-8.6421995,1.1653047,9.355536,2.6993294,1.4588841,-6.8951272,109.4078054
1779784369141,35.04105,1.9050001,-24.139051,-0.089237496,-0.6868125,-0.51713747,23.567747,2.1085138,-27.59033,1.1627067,9.359347,2.687219,1.4588841,-6.8951272,109.4078054
1779784369146,2.3419502,5.56995,6.5400004,-0.5638875,0.1848,-1.742125,33.87834,-7.454347,-26.826271,1.1246257,9.336792,2.780275,1.4588841,-6.8951272,109.4078054
1779784369150,-37.158,10.774051,24.060001,-0.3777125,-0.2398,-1.9485124,1.2173245,-3.766842,3.7597253,1.0298136,9.341327,2.8017004,1.4588841,-6.8951272,109.4078054
1779784369157,-28.087952,10.83195,13.31595,0.435325,-0.97515,-0.8056125,-38.187813,1.432724,21.2583,0.9881983,9.350302,2.7867055,1.4588841,-6.8951272,109.4078054
1779784369162,-8.55195,16.68,1.3069501,0.8248625,-0.8804125,-0.071225,-29.076149,1.4816484,10.529245,0.9883187,9.362567,2.7451737,1.4588841,-6.8951272,109.4078054
1779784369168,7.3450503,14.362051,-16.824001,0.60665,-1.3465375,0.059675,-9.540269,7.3174334,-1.4382236,1.0060338,9.373324,2.7016804,1.4588841,-6.8951272,109.4078054
1779784369172,34.99095,1.1730001,-27.10395,-0.0094875,-1.4168,0.095837496,6.3390164,4.9887266,-19.525682,1.0325515,9.374801,2.6865113,1.4588841,-6.8951272,109.4078054
1779784369176,29.11605,0.24300002,-1.1509501,-0.6810375,-0.313225,-0.9246875,33.9584,-8.2018,-29.790462,1.0136895,9.370087,2.7100353,1.4588841,-6.8951272,109.4078054
1779784369181,-16.49595,7.5979505,20.81505,-0.3595625,-0.1419,-2.1294625,28.102362,-9.127087,-3.8609853,0.924642,9.373027,2.7316318,1.4588841,-6.8951272,109.4078054
1779784369186,-33.244053,10.20705,13.813951,0.5385875,-0.9645625,-0.499125,-34.09219,0.82597446,11.085127,0.8481357,9.381076,2.728824,1.4588841,-6.8951272,109.4078054
1779784369192,-16.125,15.145051,2.67705,0.5385875,-0.9645625,-0.499125,-34.09219,0.82597446,11.085127,0.82280314,9.399184,2.6737118,1.4588841,-6.8951272,109.4078054
1779784369197,-9.562051,16.44795,-0.84000003,0.370425,-0.966625,-0.252175,-16.947803,5.745867,0.003338337,0.8181436,9.400548,2.6703455,1.4588841,-6.8951272,109.4078054
1779784369202,15.378,1.9200001,-14.235001,-0.045649998,-1.540275,0.14795,-10.380195,7.0474024,-3.5103455,0.84164375,9.401509,2.6596339,1.4588841,-6.8951272,109.4078054
1779784369207,36.33705,-3.4420502,-7.1599503,-0.1276,-0.15895,-1.5791875,35.480854,-12.840927,-9.82424,0.8561963,9.398877,2.664289,1.4588841,-6.8951272,109.4078054
1779784369212,2.50005,7.5529504,13.80195,-0.1276,-0.15895,-1.5791875,35.480854,-12.840927,-9.82424,0.8051444,9.396853,2.6872425,1.4588841,-6.8951272,109.4078054
1779784369217,-25.234951,11.995951,18.693,-0.154275,-0.58134997,-1.541925,1.6949056,-1.8439031,11.114708,0.73167413,9.401943,2.6904507,1.4588841,-6.8951272,109.4078054
1779784369221,-10.746,8.431951,10.18095,0.37785,-0.998525,-0.643775,-25.966625,2.5940075,16.00255,0.69771105,9.407363,2.680508,1.4588841,-6.8951272,109.4078054
1779784369226,-5.7450004,14.45505,2.8330503,0.64185,-0.836825,-0.528825,-11.443711,-0.97541237,7.5004425,0.67744595,9.418418,2.6466737,1.4588841,-6.8951272,109.4078054
1779784369239,1.0200001,13.677001,-10.293,0.4874375,-1.1933625,-0.2745875,-6.4224463,5.0366325,0.18637657,0.656841,9.428853,2.6145175,1.4588841,-6.8951272,109.4078054
1779784369239,29.146952,1.70895,-14.607,-0.0606375,-1.2997875,-0.11275,28.49011,-7.719903,-17.221518,0.656841,9.428853,2.6145175,1.4588841,-6.8951272,109.4078054
1779784369241,15.574951,1.266,6.9240003,-0.5501375,-0.35255,-1.1642125,28.49011,-7.719903,-17.221518,0.66884065,9.425847,2.6223009,1.4588841,-6.8951272,109.4078054
1779784369247,-17.980951,7.80705,21.36795,-0.104225,-0.491975,-1.6399624,14.906111,-8.159847,4.3016996,0.66884065,9.425847,2.6223009,1.4588841,-6.8951272,109.4078054
1779784369252,-14.75205,9.358951,10.248,0.5704875,-0.7942,-0.9205625,-18.540596,-1.6210809,18.728338,0.5132178,9.435947,2.621048,1.4588841,-6.8951272,109.4078054
1779784369256,-9.64395,20.122051,-3.17805,0.830225,-0.9400875,-0.757625,-15.265268,-0.0769968,7.626952,0.4866671,9.450013,2.575029,1.4588841,-6.8951272,109.4078054
1779784369261,-9.25605,23.47005,-1.8000001,0.297,-0.9911,-0.380875,-10.130617,10.672038,-5.753079,0.4866671,9.450013,2.575029,1.4588841,-6.8951272,109.4078054
1779784369266,23.236052,3.38295,-9.429001,-0.22659999,-1.6754375,0.138325,-9.730153,14.013095,-4.3517866,0.497033,9.455814,2.5516515,1.4588841,-6.8951272,109.4078054
1779784369271,39.877052,-7.83405,-6.7489505,-0.27445,-0.984775,-0.5278625,22.73902,-6.0728645,-11.980652,0.5008429,9.452903,2.5616765,1.4588841,-6.8951272,109.4078054
1779784369280,2.5789502,1.7329501,12.66705,-0.047849998,-0.0067375,-1.8623,39.37621,-17.286953,-9.310627,0.44863108,9.441283,2.6136744,1.4588841,-6.8951272,109.4078054
1779784369283,-32.28405,14.029051,17.577002,0.2778875,-0.3356375,-1.9963624,2.130319,-7.708333,10.053376,0.35265812,9.448275,2.6031013,1.4588841,-6.8951272,109.4078054
1779784369286,-31.65405,19.168951,3.1300502,0.7737125,-0.9134125,-1.1087999,-32.636707,4.580776,14.9739,0.29812106,9.459382,2.5693598,1.4588841,-6.8951272,109.4078054
1779784369292,-18.70395,23.106,1.7910001,0.3491125,-1.0432125,-0.20955,-31.952171,9.709569,0.5606904,0.29007426,9.466211,2.5450122,1.4588841,-6.8951272,109.4078054
1779784369298,12.96405,10.495951,-4.083,0.0884125,-1.6797,0.3832125,12.634116,1.0276871,-6.615494,0.32993457,9.468264,2.5324938,1.4588841,-6.8951272,109.4078054
1779784369302,44.169003,-5.4150004,-14.467951,-0.0595375,-1.69345,0.1331,12.634116,1.0276871,-6.615494,0.3657789,9.466795,2.5330555,1.4588841,-6.8951272,109.4078054
1779784369307,34.279953,-5.6590505,-1.4389501,-0.1287,-0.298375,-1.0407375,43.803223,-14.881796,-17.001007,0.34103814,9.466771,2.5366008,1.4588841,-6.8951272,109.4078054
1779784369313,-13.930951,6.73605,15.92205,0.11605,0.1230625,-2.4231625,33.938915,-15.125822,-3.975551,0.23683248,9.46986,2.5369375,1.4588841,-6.8951272,109.4078054
1779784369317,-44.620953,16.279951,10.116,0.5619625,-0.4250125,-2.1517375,-14.167784,-2.73381,13.385113,0.12822248,9.477481,2.5162065,1.4588841,-6.8951272,109.4078054
1779784369322,-37.474052,23.76,-2.1049502,0.6854375,-1.0932626,-0.913,-44.749176,6.80247,7.5997934,0.08078151,9.48759,2.479823,1.4588841,-6.8951272,109.4078054
1779784369326,-10.420051,18.960001,-3.3310502,0.2011625,-1.3710124,0.31501248,-37.554832,14.27241,-4.584773,0.096240066,9.491987,2.4623845,1.4588841,-6.8951272,109.4078054
1779784369333,29.301,-0.79005,-12.208951,-0.215875,-2.0425625,0.5960625,-10.516291,9.468014,-5.7934346,0.14876404,9.49042,2.4658015,1.4588841,-6.8951272,109.4078054
1779784369339,45.235054,-8.068951,-6.8869505,-0.27445,-1.097525,-0.0094875,29.152237,-10.28047,-14.674752,0.17613603,9.486379,2.4795115,1.4588841,-6.8951272,109.4078054
1779784369348,21.117,-1.61205,5.0670004,0.257675,-0.102575,-1.45475,45.058918,-17.555328,-9.366462,0.023150574,9.494832,2.4531608,1.4588841,-6.8951272,109.4078054
1779784369348,-25.879951,14.548951,3.3330002,0.257675,-0.102575,-1.45475,45.058918,-17.555328,-9.366462,0.023150574,9.494832,2.4531608,1.4588841,-6.8951272,109.4078054
1779784369354,-41.51895,23.851051,-4.29405,-0.3106125,-1.132725,-0.41181248,-41.455242,14.348979,-6.71829,-0.06370938,9.502072,2.4242396,1.4588841,-6.8951272,109.4078054
1779784369357,-29.139002,22.411951,6.696,-0.3106125,-1.132725,-0.41181248,-41.455242,14.348979,-6.71829,-0.086489074,9.500632,2.4291763,1.4588841,-6.8951272,109.4078054
1779784369363,5.985,2.09505,8.6650505,-0.4277625,-1.688225,0.46928748,-29.052513,12.911319,4.266824,-0.086489074,9.500632,2.4291763,1.4588841,-6.8951272,109.4078054
1779784369368,39.261,-8.20995,-4.4370003,0.0735625,-1.803175,0.25753748,5.906356,-7.3606396,6.0661755,0.121146254,9.454563,2.6013353,1.4588841,-6.8951272,109.4078054
1779784369372,31.699951,1.182,0.89295006,0.36519998,-0.3366,-0.7288875,39.139854,-17.664513,-7.038336,0.11089812,9.458783,2.5864122,1.4588841,-6.8951272,109.4078054
1779784369382,-7.227,16.302,7.3069506,0.4076875,-0.47079998,-1.9943,31.589052,-8.276783,-1.6934621,0.030184418,9.465186,2.5650992,1.4588841,-6.8951272,109.4078054
1779784369384,-28.986002,19.33395,4.5360003,0.3001625,-0.5218125,-1.61865,-7.2571845,6.836814,4.7418513,-0.08327333,9.471768,2.5395012,1.4588841,-6.8951272,109.4078054
1779784369387,-20.611052,20.472,5.80305,0.1885125,-1.0432125,-0.7502,-28.902729,9.862182,1.9964991,-0.084136665,9.471823,2.5392718,1.4588841,-6.8951272,109.4078054
1779784369393,-7.4880004,14.69505,9.120001,-0.055275,-1.3476375,-0.2926,-20.526915,11.000177,3.2637782,-0.08969284,9.471277,2.5411143,1.4588841,-6.8951272,109.4078054
1779784369399,17.848051,-2.02605,-2.7490501,0.0735625,-1.5796,-0.041525,-7.3983073,5.223773,6.5788865,-0.06373539,9.470851,2.543481,1.4588841,-6.8951272,109.4078054
1779784369404,30.591002,-1.7200501,-2.9640002,0.22893749,-1.023,-0.561825,17.911787,-11.496901,-5.292531,-0.063313656,9.473354,2.5341568,1.4588841,-6.8951272,109.4078054
1779784369408,-1.5079501,11.416051,-0.47595003,0.618475,-0.4824875,-1.7441875,30.654316,-11.193404,-5.498157,-0.22120209,9.489412,2.4642482,1.4588841,-6.8951272,109.4078054
1779784369414,-24.85695,18.21105,2.778,0.1799875,-0.6601375,-1.5706625,-24.634905,8.721585,0.31403542,-0.22204496,9.489465,2.4639647,1.4588841,-6.8951272,109.4078054
1779784369418,-18.27795,15.49995,6.2629504,0.1395625,-1.2189375,-0.43835,-18.017248,6.0104275,3.8029935,-0.2607026,9.489523,2.459957,1.4588841,-6.8951272,109.4078054
1779784369423,-8.71695,15.361051,11.980051,0.1395625,-1.2189375,-0.43835,-18.017248,6.0104275,3.8029935,-0.27202305,9.488538,2.4625297,1.4588841,-6.8951272,109.4078054
1779784369428,11.84595,7.4809504,-1.6830001,0.3342625,-1.6797,-0.1276,-8.444927,5.872513,9.517521,-0.23519583,9.49326,2.4480832,1.4588841,-6.8951272,109.4078054
1779784369437,34.33005,-2.25405,-14.062951,0.2864125,-1.5423375,-0.45113748,12.081146,-2.01231,-4.1310835,-0.17263153,9.492698,2.4554586,1.4588841,-6.8951272,109.4078054
1779784369438,12.34395,2.4079502,2.33205,0.2459875,-0.35585,-2.0262,12.516582,-7.0847473,-0.123408556,-0.17263153,9.492698,2.4554586,1.4588841,-6.8951272,109.4078054
1779784369440,-25.389002,14.379001,13.33695,0.2459875,-0.35585,-2.0262,12.516582,-7.0847473,-0.123408556,-0.2703934,9.4913225,2.451953,1.4588841,-6.8951272,109.4078054
1779784369446,-29.970001,16.51995,9.151051,0.20019999,-0.819775,-1.693175,-25.118608,4.887678,10.884997,-0.35068363,9.490896,2.4434197,1.4588841,-6.8951272,109.4078054
1779784369451,-16.834051,17.53095,10.55895,0.3938,-1.4487,-0.9024125,-29.619318,7.0290546,6.707631,-0.38913843,9.493965,2.425616,1.4588841,-6.8951272,109.4078054
1779784369456,4.182,12.582001,8.679001,0.1799875,-1.4168,-0.2297625,4.563662,3.0884905,6.250426,-0.3816621,9.49351,2.428575,1.4588841,-6.8951272,109.4078054
1779784369461,32.80395,1.4959501,-15.909,0.4662625,-1.89255,0.0606375,4.563662,3.0884905,6.250426,-0.35833266,9.498573,2.4122763,1.4588841,-6.8951272,109.4078054
1779784369466,36.804,3.4410002,-19.399052,0.7568,-1.66155,-0.3724875,33.162285,-8.002624,-18.321278,-0.34714377,9.50724,2.3795557,1.4588841,-6.8951272,109.4078054
1779784369474,-1.0720501,8.178,-1.041,0.1225125,-0.45045,-1.544125,37.151146,-6.0662403,-21.778606,-0.4077708,9.512697,2.347914,1.4588841,-6.8951272,109.4078054
1779784369486,-40.89405,15.448951,24.520052,-0.37661248,-0.6430875,-2.591325,-0.6642793,-1.3346968,-3.388914,-0.61253554,9.495272,2.373822,1.4588841,-6.8951272,109.4078054
1779784369486,-39.9,14.69505,21.081001,-0.5746125,-0.68145,-2.3964875,-39.287464,5.1997786,18.70718,-0.61253554,9.495272,2.373822,1.4588841,-6.8951272,109.4078054
1779784369486,-12.333,19.72005,8.49495,1.0483,-1.8371375,0.303325,-39.287464,5.1997786,18.70718,-0.64107585,9.497774,2.356202,1.4588841,-6.8951272,109.4078054
1779784369491,21.79005,10.792951,-15.094951,1.0483,-1.8371375,0.303325,-11.691924,10.222277,6.138748,-0.61290044,9.509355,2.3166575,1.4588841,-6.8951272,109.4078054
1779784369497,41.431053,-0.29205,-27.688051,0.5630625,-2.1883125,0.11715,22.40295,1.283596,-17.411608,-0.5775234,9.518248,2.2890723,1.4588841,-6.8951272,109.4078054
1779784369501,30.297,-0.711,-6.80595,-0.1051875,-1.4008499,-0.5905625,30.872435,-10.229334,-9.095188,-0.5754343,9.518333,2.289238,1.4588841,-6.8951272,109.4078054
1779784369506,-22.143002,6.5800505,17.25105,-0.14355,-0.1131625,-2.1038876,30.872435,-10.229334,-9.095188,-0.6530393,9.5106735,2.3002257,1.4588841,-6.8951272,109.4078054
1779784369511,-53.058002,12.441001,28.393051,-0.5416125,-0.7847125,-2.8584874,-21.489962,-2.930623,14.950825,-0.78136593,9.495484,2.3228576,1.4588841,-6.8951272,109.4078054
1779784369516,-39.154953,22.488,19.311,0.438625,-1.5690125,-1.7100875,-52.276638,2.9455166,26.070194,-0.86503077,9.488892,2.3201418,1.4588841,-6.8951272,109.4078054
1779784369522,-0.124050006,18.94605,-6.327,0.9409125,-1.766875,0.064899996,-38.28992,12.999109,16.99086,-0.8623073,9.496671,2.289118,1.4588841,-6.8951272,109.4078054
1779784369534,38.895,6.4630504,-33.93405,1.0855625,-2.4651,0.8897625,0.7382573,9.44938,-8.616118,-0.7406835,9.520984,2.2299442,1.4588841,-6.8951272,109.4078054
1779784369534,50.251953,4.0129504,-27.027,1.0855625,-2.4651,0.8897625,50.992638,-5.5080333,-29.256945,-0.7406835,9.520984,2.2299442,1.4588841,-6.8951272,109.4078054
1779784369538,25.222052,3.34995,-3.17805,-0.395725,-0.7176125,-0.59482497,50.992638,-5.5080333,-29.256945,-0.7406835,9.520984,2.2299442,1.4588841,-6.8951272,109.4078054
1779784369542,-34.92105,15.969001,22.965,-0.57035,0.055,-2.5551624,25.95761,-6.1672525,-5.425765,-0.834871,9.503872,2.2693195,1.4588841,-6.8951272,109.4078054
1779784369546,-52.576954,22.38495,15.031051,-0.446875,-0.96029997,-3.1169875,-34.08618,6.465129,20.69568,-0.9776862,9.481942,2.3037608,1.4588841,-6.8951272,109.4078054
1779784369552,-29.26905,33.967953,-3.8580003,0.4279,-2.308625,-1.6335,-51.599266,12.903008,12.72729,-1.0548375,9.4749365,2.2985413,1.4588841,-6.8951272,109.4078054
1779784369556,14.260051,18.619951,-22.702051,0.83875,-1.7232875,0.3224375,-28.214212,24.493015,-6.156542,-1.0393394,9.482861,2.2727795,1.4588841,-6.8951272,109.4078054
1779784369567,44.454002,-2.3059502,-25.10205,-0.429825,-2.7907,0.4587,15.29939,9.137091,-24.97483,-0.9641782,9.470525,2.3558333,1.4588841,-6.8951272,109.4078054
1779784369567,34.82595,-5.367,10.38195,-0.429825,-2.7907,0.4587,45.43697,-11.791284,-27.38955,-0.9641782,9.470525,2.3558333,1.4588841,-6.8951272,109.4078054
1779784369573,-23.188051,4.43505,34.24095,-0.7874625,0.13805,-2.117775,35.79013,-14.837524,8.026117,-1.037817,9.449645,2.407815,1.4588841,-6.8951272,109.4078054
1779784369578,-54.99105,19.75995,28.34205,-0.379775,-1.3615249,-3.391575,-22.150234,-5.014595,31.833138,-1.180886,9.426617,2.4320369,1.4588841,-6.8951272,109.4078054
