timestamp,ax,ay,az,magnitude,gx,gy,gz,lat,lon,alt,speed,accuracy,bearing
1779702743337,-1.40295,11.349001,2.43495,11.221036,0.0694375,-0.055,0.0154,-6.8939607,109.4149316,36.20000076293945,2.344589,1.995,184.95508
1779702743344,1.2720001,10.662001,0.66105,10.850558,-0.096525,-0.1007875,0.13035,-6.8939607,109.4149316,36.20000076293945,2.344589,1.995,184.95508
1779702743361,5.15205,7.76595,2.1070502,9.813911,-0.096525,-0.1007875,0.13035,-6.8939607,109.4149316,36.20000076293945,2.344589,1.995,184.95508
1779702743361,-1.7329501,10.18305,4.2649503,10.903026,0.1332375,-0.029424999,0.0207625,-6.8939607,109.4149316,36.20000076293945,2.344589,1.995,184.95508
1779702743361,-1.9219501,11.743951,0.79005,11.721706,-0.13805,0.0237875,0.0037125,-6.8939607,109.4149316,36.20000076293945,2.344589,1.995,184.95508
1779702743362,1.743,10.05795,-0.35595003,10.515594,-0.13805,0.0237875,0.0037125,-6.8939607,109.4149316,36.20000076293945,2.344589,1.995,184.95508
1779702834969,1.19295,9.117001,3.31905,7.820339,,,,-6.8939821,109.4149308,36.20000076293945,0.34550017,1.909,180.05154
1779702835009,4.72305,9.625051,0.14805001,10.14202,,,,-6.8939821,109.4149308,36.20000076293945,0.34550017,1.909,180.05154
1779702835009,0.735,10.729051,1.3260001,10.696914,,,,-6.8939821,109.4149308,36.20000076293945,0.34550017,1.909,180.05154
1779702835009,-1.6680001,10.413,2.4400501,10.798866,,,,-6.8939821,109.4149308,36.20000076293945,0.34550017,1.909,180.05154
1779702835009,0.89805007,8.75805,4.3780503,10.025742,,,,-6.8939821,109.4149308,36.20000076293945,0.34550017,1.909,180.05154
1779702835073,3.41805,8.752951,2.4469502,9.773176,0.0264,0.03575,-0.045649998,-6.8939821,109.4149308,36.20000076293945,0.34550017,1.909,180.05154
1779702835073,1.19505,9.378,2.15295,9.711346,0.0264,0.03575,-0.045649998,-6.8939821,109.4149308,36.20000076293945,0.34550017,1.909,180.05154
1779702835073,-1.52205,11.60295,-2.5759501,11.528279,0.0264,0.03575,-0.045649998,-6.8939821,109.4149308,36.20000076293945,0.34550017,1.909,180.05154
1779702835073,-0.291,7.54995,8.394,11.340546,0.0264,0.03575,-0.045649998,-6.8939821,109.4149308,36.20000076293945,0.34550017,1.909,180.05154
1779702835073,4.1070004,9.30105,1.3579501,10.474293,0.0264,0.03575,-0.045649998,-6.8939821,109.4149308,36.20000076293945,0.34550017,1.909,180.05154
1779702835074,1.4389501,10.245001,1.5180001,10.459927,0.0264,0.03575,-0.045649998,-6.8939821,109.4149308,36.20000076293945,0.34550017,1.909,180.05154
1779702835088,-1.2349501,10.42905,1.31895,10.559518,-0.0661375,-0.0132,0.043725,-6.8939821,109.4149308,36.20000076293945,0.34550017,1.909,180.05154
1779702835088,-0.24300002,9.495001,4.5930004,10.552179,-0.0661375,-0.0132,0.043725,-6.8939821,109.4149308,36.20000076293945,0.34550017,1.909,180.05154
1779702835106,4.2060003,9.213,1.128,10.262676,-0.029975,0.029424999,-0.050875,-6.8939821,109.4149308,36.20000076293945,0.34550017,1.909,180.05154
1779702835106,1.21905,8.508,4.452,9.796124,-0.029975,0.029424999,-0.050875,-6.8939821,109.4149308,36.20000076293945,0.34550017,1.909,180.05154
1779702835126,-1.3450501,11.976001,-3.9850502,12.113692,-0.2960375,-0.015262499,0.028875,-6.8939821,109.4149308,36.20000076293945,0.34550017,1.909,180.05154
1779702835126,-0.90900004,7.3230004,8.401051,11.3680935,-0.2960375,-0.015262499,0.028875,-6.8939821,109.4149308,36.20000076293945,0.34550017,1.909,180.05154
1779702835146,4.82595,8.590051,1.87995,10.2981,0.0583,0.0517,-0.0710875,-6.8939821,109.4149308,36.20000076293945,0.34550017,1.909,180.05154
1779702835146,0.735,11.36295,0.74895006,11.188661,0.0583,0.0517,-0.0710875,-6.8939821,109.4149308,36.20000076293945,0.34550017,1.909,180.05154
1779702835168,-1.5990001,10.594951,2.4379501,11.02876,-0.0650375,-0.036575,0.0576125,-6.8939821,109.4149308,36.20000076293945,0.34550017,1.909,180.05154
1779702835168,0.99600005,8.37405,4.7970004,9.967317,-0.0650375,-0.036575,0.0576125,-6.8939821,109.4149308,36.20000076293945,0.34550017,1.909,180.05154
1779702835178,3.183,9.505051,1.2790501,10.077559,0.0721875,-0.034375,0.0331375,-6.8939821,109.4149308,36.20000076293945,0.34550017,1.909,180.05154
1779702835208,-1.5010501,8.137051,8.37705,11.435141,0.2286625,-0.1535875,0.177925,-6.8939821,109.4149308,36.20000076293945,0.34550017,1.909,180.05154
1779702835328,5.85795,8.65695,1.422,10.726192,0.049775,0.03575,-0.01155,-6.8939821,109.4149308,36.20000076293945,0.34550017,1.909,180.05154
1779702835328,1.7869501,10.495951,1.044,10.703672,0.0924,-0.1483625,0.16293749,-6.8939821,109.4149308,36.20000076293945,0.34550017,1.909,180.05154
1779702835329,-2.5210502,11.373,-0.19305001,11.46127,0.0924,-0.1483625,0.16293749,-6.8939821,109.4149308,36.20000076293945,0.34550017,1.909,180.05154
1779702835329,0.13395001,8.6310005,5.50605,10.483126,0.0924,-0.1483625,0.16293749,-6.8939821,109.4149308,36.20000076293945,0.34550017,1.909,180.05154
1779702835329,4.4760003,8.71695,2.0070002,10.098539,0.0924,-0.1483625,0.16293749,-6.8939821,109.4149308,36.20000076293945,0.34550017,1.909,180.05154
1779702835329,0.87600005,8.70495,5.04405,10.098757,0.0924,-0.1483625,0.16293749,-6.8939821,109.4149308,36.20000076293945,0.34550017,1.909,180.05154
1779702835329,-0.76305,12.022051,-4.24305,12.237084,0.0924,-0.1483625,0.16293749,-6.8939821,109.4149308,36.20000076293945,0.34550017,1.909,180.05154
1779702835329,-0.99300003,8.25,6.7540503,11.013985,0.0924,-0.1483625,0.16293749,-6.8939821,109.4149308,36.20000076293945,0.34550017,1.909,180.05154
1779702835330,3.9880502,8.470051,2.9839501,10.063597,0.0924,-0.1483625,0.16293749,-6.8939821,109.4149308,36.20000076293945,0.34550017,1.909,180.05154
1779702835330,2.1340501,10.5390005,1.41495,10.68919,0.0924,-0.1483625,0.16293749,-6.8939821,109.4149308,36.20000076293945,0.34550017,1.909,180.05154
1779702835330,-1.1770501,10.092,1.4389501,10.347277,0.0924,-0.1483625,0.16293749,-6.8939821,109.4149308,36.20000076293945,0.34550017,1.909,180.05154
1779702835330,-1.5679501,9.90495,5.0869503,11.065226,0.1126125,-0.0408375,0.062975,-6.8939821,109.4149308,36.20000076293945,0.34550017,1.909,180.05154
1779702835341,4.7299504,8.68305,0.651,10.140379,-0.1034,0.013475,-0.0466125,-6.8939821,109.4149308,36.20000076293945,0.34550017,1.909,180.05154
1779702835351,1.4110501,8.64,4.842,10.031501,0.3009875,0.012375,-0.0221375,-6.8939821,109.4149308,36.20000076293945,0.34550017,1.909,180.05154
1779702835360,-0.61005,11.986051,-4.5360003,12.270424,-0.4907375,-0.0408375,-0.0169125,-6.8939821,109.4149308,36.20000076293945,0.34550017,1.909,180.05154
1779702835373,-1.7260501,8.3220005,6.8760004,11.199894,0.264825,-0.12485,0.08635,-6.8939821,109.4149308,36.20000076293945,0.34550017,1.909,180.05154
1779702835380,3.79605,8.10105,3.7050002,9.9865265,-0.0363,0.096525,-0.1370875,-6.8939821,109.4149308,36.20000076293945,0.34550017,1.909,180.05154
1779702835391,2.292,10.884001,0.93405,10.926796,0.0977625,-0.02805,-0.0297,-6.8939821,109.4149308,36.20000076293945,0.34550017,1.909,180.05154
1779702835401,-0.45195,10.420051,1.2349501,10.587523,-0.111925,-0.0121,-0.01155,-6.8939821,109.4149308,36.20000076293945,0.34550017,1.909,180.05154
1779702835410,-0.39705002,9.77505,3.90105,10.543273,0.102025,-0.0056375,-0.0254375,-6.8939821,109.4149308,36.20000076293945,0.34550017,1.909,180.05154
1779702835422,3.0199502,9.30795,1.2349501,9.999231,-0.1150875,-0.0727375,-0.122237496,-6.8939821,109.4149308,36.20000076293945,0.34550017,1.909,180.05154
1779702835430,2.115,8.463,4.2460504,9.7612705,0.1615625,-0.02915,-0.102025,-6.8939821,109.4149308,36.20000076293945,0.34550017,1.909,180.05154
1779702835441,-0.44700003,11.28705,-2.5930502,11.224017,-0.4280375,-0.02805,-0.07755,-6.8939821,109.4149308,36.20000076293945,0.34550017,1.909,180.05154
1779702835450,-2.29395,8.434051,6.59595,11.004785,0.263725,-0.1887875,0.0746625,-6.8939821,109.4149308,36.20000076293945,0.34550017,1.909,180.05154
1779702835460,3.3820503,8.17095,3.3409503,9.763587,-0.0320375,0.0177375,-0.1689875,-6.8939821,109.4149308,36.20000076293945,0.34550017,1.909,180.05154
1779702835479,2.60295,10.959001,0.61800003,10.977377,-0.1651375,0.00275,-0.1808125,-6.8939821,109.4149308,36.20000076293945,0.34550017,1.909,180.05154
1779702835481,-0.88500005,10.49205,0.65295005,10.635103,-0.1342,-0.03025,-0.0169125,-6.8939821,109.4149308,36.20000076293945,0.34550017,1.909,180.05154
1779702835491,-1.6489501,9.667951,5.0869503,10.965677,0.100925,-0.051425,0.014025,-6.8939821,109.4149308,36.20000076293945,0.34550017,1.909,180.05154
1779702835510,3.59205,8.904,0.91200006,9.908711,0.3350875,-0.0386375,-0.0710875,-6.8939821,109.4149308,36.20000076293945,0.34550017,1.909,180.05154
1779702835512,1.2070501,8.15205,6.11205,10.189837,0.3350875,0.0251625,-0.067925,-6.8939821,109.4149308,36.20000076293945,0.34550017,1.909,180.05154
1779702835521,-0.11595,11.545051,-4.0129504,11.816488,-0.194975,0.029424999,-0.0796125,-6.8939821,109.4149308,36.20000076293945,0.34550017,1.909,180.05154
1779702835531,-2.36805,8.13,7.2970505,11.305835,0.312675,-0.103675,0.0917125,-6.8939821,109.4149308,36.20000076293945,0.34550017,1.909,180.05154
1779702835548,3.0970502,8.578051,2.7250502,9.875914,-0.02035,0.0314875,-0.083875,-6.8939821,109.4149308,36.20000076293945,0.34550017,1.909,180.05154
1779702835551,2.9509501,10.807951,0.22695,10.939875,-0.02035,0.0314875,-0.083875,-6.8939821,109.4149308,36.20000076293945,0.34550017,1.909,180.05154
1779702835561,-0.91395,9.98595,1.59,10.310344,-0.0917125,0.079475,-0.0094875,-6.8939821,109.4149308,36.20000076293945,0.34550017,1.909,180.05154
1779702835571,-2.41995,10.05795,5.08395,11.283439,0.14245,-0.116325,0.1364,-6.8939821,109.4149308,36.20000076293945,0.34550017,1.909,180.05154
1779702835579,3.79605,8.908051,0.97695005,10.042533,-0.2311375,0.0262625,-0.0946,-6.8939821,109.4149308,36.20000076293945,0.34550017,1.909,180.05154
1779702835590,1.899,8.14005,5.769,10.1334505,0.4010875,0.00385,-0.0881375,-6.8939821,109.4149308,36.20000076293945,0.34550017,1.909,180.05154
1779702835599,-0.35805002,11.908951,-4.203,12.133844,-0.3386625,0.00605,-0.0402875,-6.8939821,109.4149308,36.20000076293945,0.34550017,1.909,180.05154
1779702835609,-2.1070502,8.7619505,5.808,11.003736,0.07755,-0.0556875,0.0735625,-6.8939821,109.4149308,36.20000076293945,0.34550017,1.909,180.05154
1779702835624,3.59205,7.7110505,4.1329503,9.766751,-0.0576125,0.0974875,-0.1615625,-6.8939821,109.4149308,36.20000076293945,0.34550017,1.909,180.05154
1779702835629,2.7160501,11.239051,-0.31605002,11.206866,-0.0576125,0.0974875,-0.1615625,-6.8939821,109.4149308,36.20000076293945,0.34550017,1.909,180.05154
1779702835640,-0.68595004,10.092,0.89505005,10.365219,-0.02365,0.055,-0.083875,-6.8939821,109.4149308,36.20000076293945,0.34550017,1.909,180.05154
1779702835650,-2.5159502,9.019051,4.8019505,10.491386,0.0328625,0.0528,0.094875,-6.8939821,109.4149308,36.20000076293945,0.34550017,1.909,180.05154
1779702835660,0.64905006,9.76305,3.7860003,10.491502,-0.1342,-0.06215,0.1714625,-6.8939821,109.4149308,36.20000076293945,0.34550017,1.909,180.05154
1779702835670,6.3109503,8.00805,3.9150002,10.835684,0.2998875,0.1507,-0.1318625,-6.8939821,109.4149308,36.20000076293945,0.34550017,1.909,180.05154
1779702835680,0.43800002,11.416051,-2.09505,11.4591055,0.1445125,0.1518,-0.1689875,-6.8939821,109.4149308,36.20000076293945,0.34550017,1.909,180.05154
1779702835690,-4.09695,10.18305,4.4830503,11.777043,0.0732875,-0.19085,0.1087625,-6.8939821,109.4149308,36.20000076293945,0.34550017,1.909,180.05154
1779702835700,5.3359504,7.6270504,2.7469501,10.119532,-0.02255,-0.0312125,-0.10835,-6.8939821,109.4149308,36.20000076293945,0.34550017,1.909,180.05154
1779702835711,3.3820503,10.123051,1.7359501,10.674564,0.0977625,-0.02915,-0.24255,-6.8939821,109.4149308,36.20000076293945,0.34550017,1.909,180.05154
1779702835720,-1.05495,11.566951,-1.47195,11.5012,-0.3216125,-0.118525,-0.1573,-6.8939821,109.4149308,36.20000076293945,0.34550017,1.909,180.05154
1779702835731,-1.2349501,8.556001,7.1179504,11.25865,0.264825,-0.3271125,-0.04235,-6.8939821,109.4149308,36.20000076293945,0.34550017,1.909,180.05154
1779702835742,4.22205,9.93795,-0.60495,10.903371,-0.2322375,-0.1876875,-0.2701875,-6.8939821,109.4149308,36.20000076293945,0.34550017,1.909,180.05154
1779702835751,1.69095,9.24405,4.5550504,10.535228,0.201025,-0.25795,-0.1967625,-6.8939821,109.4149308,36.20000076293945,0.34550017,1.909,180.05154
1779702835761,1.5090001,10.621051,-0.90705,10.719837,-0.1364,-0.25575,-0.2371875,-6.8939821,109.4149308,36.20000076293945,0.34550017,1.909,180.05154
1779702835771,-0.64605004,9.7560005,2.4880502,10.215144,-0.1364,-0.25575,-0.2371875,-6.8939821,109.4149308,36.20000076293945,0.34550017,1.909,180.05154
1779702835781,0.96000004,8.80095,4.11705,9.853931,0.0966625,-0.394075,-0.20735,-6.8939821,109.4149308,36.20000076293945,0.34550017,1.909,180.05154
1779702835791,4.131,10.807951,-0.87795,11.253813,-0.0842875,-0.3729,-0.328625,-6.8939821,109.4149308,36.20000076293945,0.34550017,1.909,180.05154
1779702835801,-0.26700002,9.700951,2.4709501,10.262168,-0.1247125,-0.3260125,-0.4063125,-6.8939821,109.4149308,36.20000076293945,0.34550017,1.909,180.05154
1779702835811,-2.35605,9.736951,5.3910003,11.15354,-0.0342375,-0.5027,-0.24145,-6.8939821,109.4149308,36.20000076293945,0.34550017,1.909,180.05154
1779702835822,3.7390501,9.562051,-0.67995006,10.462379,-0.240625,-0.4591125,-0.3851375,-6.8939821,109.4149308,36.20000076293945,0.34550017,1.909,180.05154
1779702835831,0.99600005,8.71905,5.56605,10.406119,-0.1353,-0.4005375,-0.412775,-6.8939821,109.4149308,36.20000076293945,0.34550017,1.909,180.05154
1779702835841,0.51000005,10.840951,-0.85395,10.790413,-0.126775,-0.461175,-0.410575,-6.8939821,109.4149308,36.20000076293945,0.34550017,1.909,180.05154
1779702835851,-0.29805002,9.426001,2.42295,9.947677,-0.0650375,-0.524975,-0.37015,-6.8939821,109.4149308,36.20000076293945,0.34550017,1.909,180.05154
1779702835862,0.108,8.772,5.7049503,10.36115,0.2041875,-0.5814875,-0.3254625,-6.8939821,109.4149308,36.20000076293945,0.34550017,1.909,180.05154
1779702835875,3.5370002,10.662001,-1.8960001,11.186033,-0.1225125,-0.5165875,-0.53295,-6.8939821,109.4149308,36.20000076293945,0.34550017,1.909,180.05154
1779702835881,-0.030000001,9.426001,3.2950501,10.225508,-0.0831875,-0.4665375,-0.4393125,-6.8939821,109.4149308,36.20000076293945,0.34550017,1.909,180.05154
1779702835892,-1.06005,10.05795,3.89595,10.715584,0.01155,-0.61545,-0.37125,-6.8939821,109.4149308,36.20000076293945,0.34550017,1.909,180.05154
1779702835902,2.4430501,9.373051,1.01505,9.934513,-0.0405625,-0.641025,-0.3840375,-6.8939821,109.4149308,36.20000076293945,0.34550017,1.909,180.05154
1779702835912,1.07505,9.625051,4.07595,10.393022,0.0935,-0.610225,-0.4191,-6.8939821,109.4149308,36.20000076293945,0.34550017,1.909,180.05154
1779702835922,0.94605005,10.044001,0.045,10.14945,-0.0565125,-0.576125,-0.511775,-6.8939821,109.4149308,36.20000076293945,0.34550017,1.909,180.05154
1779702835932,-1.005,9.850051,2.8950002,10.282485,-0.23539999,-0.6708625,-0.4745125,-6.8939821,109.4149308,36.20000076293945,0.34550017,1.909,180.05154
1779702835943,0.651,8.439,4.6080003,9.766197,0.1595,-0.7007,-0.40315,-6.8939821,109.4149308,36.20000076293945,0.34550017,1.909,180.05154
1779702835952,2.4499502,10.630051,-0.86595005,10.707671,0.001925,-0.593175,-0.60115,-6.8939821,109.4149308,36.20000076293945,0.34550017,1.909,180.05154
1779702835962,0.105000004,8.4529505,3.1560001,9.360342,-0.045925,-0.5346,-0.60225,-6.8939821,109.4149308,36.20000076293945,0.34550017,1.909,180.05154
1779702835975,-2.4780002,10.389001,3.4459503,10.850137,-0.0501875,-0.708125,-0.40205,-6.8939821,109.4149308,36.20000076293945,0.34550017,1.909,180.05154
1779702835985,3.7050002,9.50205,0.65295005,10.345791,-0.061875,-0.65381247,-0.4521,-6.8939821,109.4149308,36.20000076293945,0.34550017,1.909,180.05154
1779702835996,1.4269501,8.88,3.8410501,9.892989,0.2116125,-0.6527125,-0.542575,-6.8939821,109.4149308,36.20000076293945,0.34550017,1.909,180.05154
1779702836005,-2.6500502,11.790001,1.7340001,11.744945,-0.0842875,-0.6293375,-0.40425,-6.8939821,109.4149308,36.20000076293945,0.34550017,1.909,180.05154
1779702836015,0.096,8.394,4.62195,10.015264,0.215875,-0.6197125,-0.3894,-6.8939821,109.4149308,36.20000076293945,0.34550017,1.909,180.05154
1779702836025,2.8210502,9.10005,0.62700003,9.641371,-0.1150875,-0.4164875,-0.56925,-6.8939821,109.4149308,36.20000076293945,0.34550017,1.909,180.05154
1779702836035,-2.5570502,8.25195,4.656,9.779349,0.1137125,-0.45265,-0.279675,-6.8939821,109.4149308,36.20000076293945,0.34550017,1.909,180.05154
1779702836045,-3.31905,10.582951,2.6869502,11.085501,-0.0363,-0.463375,-0.2382875,-6.8939821,109.4149308,36.20000076293945,0.34550017,1.909,180.05154
1779702836056,5.3770504,7.4500504,0.70395005,9.588894,-0.0246125,-0.2792625,-0.5713125,-6.8939821,109.4149308,36.20000076293945,0.34550017,1.909,180.05154
1779702836065,-3.2920501,12.27105,4.533,12.709312,0.1626625,-0.6347,-0.043449998,-6.8939821,109.4149308,36.20000076293945,0.34550017,1.909,180.05154
1779702836078,0.71400005,10.362,-2.5480502,11.097503,-0.1139875,-0.4398625,-0.14135,-6.8939821,109.4149308,36.20000076293945,0.34550017,1.909,180.05154
1779702836086,-0.19305001,7.0620003,6.84705,10.090103,0.31913748,-0.39627498,-0.3680875,-6.8939821,109.4149308,36.20000076293945,0.34550017,1.909,180.05154
1779702836096,-4.0399504,9.15795,5.6329503,11.206514,0.37235,-0.02695,-0.1552375,-6.8939821,109.4149308,36.20000076293945,0.34550017,1.909,180.05154
1779702836107,2.43105,9.838051,-1.24995,10.409912,-0.1395625,0.0539,-0.411675,-6.8939821,109.4149308,36.20000076293945,0.34550017,1.909,180.05154
1779702836116,-0.43995002,7.69395,8.431951,11.220498,0.40535,-0.1205875,0.143825,-6.8939821,109.4149308,36.20000076293945,0.34550017,1.909,180.05154
1779702836126,-1.3590001,11.859,-3.9250503,12.296404,-0.3768875,0.0847,-0.10835,-6.8939821,109.4149308,36.20000076293945,0.34550017,1.909,180.05154
1779702836137,-0.19800001,8.335951,2.802,9.496484,-0.257675,-0.1238875,-0.148775,-6.8939821,109.4149308,36.20000076293945,0.34550017,1.909,180.05154
1779702836147,-3.1680002,9.15795,6.94995,11.439312,-0.0108624995,-0.26427498,0.1714625,-6.8939821,109.4149308,36.20000076293945,0.34550017,1.909,180.05154
1779702836160,2.6220002,10.639951,-0.29205,11.057583,-0.0012375,0.1529,-0.4202,-6.8939821,109.4149308,36.20000076293945,0.34550017,1.909,180.05154
1779702836173,-1.1539501,7.9069505,4.881,9.702338,-0.045925,0.3763375,-0.1051875,-6.8939821,109.4149308,36.20000076293945,0.34550017,1.909,180.05154
1779702836175,-3.0700502,11.7300005,3.7890003,12.103133,0.045649998,0.0474375,0.0235125,-6.8939821,109.4149308,36.20000076293945,0.34550017,1.909,180.05154
1779702836185,2.7180002,9.28695,-1.04805,10.207113,0.2690875,0.3487,-0.23925,-6.8939821,109.4149308,36.20000076293945,0.34550017,1.909,180.05154
1779702836195,-1.7190001,10.71,-0.83805007,10.744945,-0.3683625,-0.05995,0.1406625,-6.8939821,109.4149308,36.20000076293945,0.34550017,1.909,180.05154
1779702836205,-0.708,4.97805,3.4990501,7.0496407,0.3531,0.21779999,-0.18287499,-6.8939821,109.4149308,36.20000076293945,0.34550017,1.909,180.05154
1779702836214,-6.7219505,16.57695,1.76505,15.78981,-0.08745,0.1518,0.174625,-6.8939821,109.4149308,36.20000076293945,0.34550017,1.909,180.05154
1779702836226,9.7879505,4.7389503,-0.30795002,11.861302,-0.1225125,-0.034375,0.273625,-6.8939821,109.4149308,36.20000076293945,0.34550017,1.909,180.05154
1779702836236,-4.18305,9.082951,2.46195,10.611061,-0.0672375,0.4764375,-0.396825,-6.8939821,109.4149308,36.20000076293945,0.34550017,1.909,180.05154
1779702836246,-9.8550005,14.829,4.75395,16.865246,0.1797125,0.176275,0.4769875,-6.8939821,109.4149308,36.20000076293945,0.34550017,1.909,180.05154
1779702836258,12.744,7.4329505,-6.22905,16.184528,-0.3546125,0.438075,-0.2850375,-6.8939821,109.4149308,36.20000076293945,0.34550017,1.909,180.05154
1779702836265,-0.57900006,6.0390005,8.21895,11.409286,0.426525,0.0496375,-0.1137125,-6.8939821,109.4149308,36.20000076293945,0.34550017,1.909,180.05154
1779702836276,-10.73805,15.739051,1.45605,17.56884,-0.0033,-4.125E-4,0.060775,-6.8939821,109.4149308,36.20000076293945,0.34550017,1.909,180.05154
1779702836285,7.4119506,9.835051,-4.1280003,13.904706,-0.241725,0.1783375,0.3216125,-6.8939821,109.4149308,36.20000076293945,0.34550017,1.909,180.05154
1779702836295,8.325001,2.9190001,3.8560503,10.483214,0.15413749,0.650925,-0.4563625,-6.8939821,109.4149308,36.20000076293945,0.34550017,1.909,180.05154
1779702836308,-16.62105,17.025002,2.7229502,21.25534,0.3658875,-0.1706375,0.0842875,-6.8939821,109.4149308,36.20000076293945,0.34550017,1.909,180.05154
1779702836315,4.01595,11.719951,-1.4119501,14.226356,-0.2226125,-0.3037375,0.6301625,-6.8939821,109.4149308,36.20000076293945,0.34550017,1.909,180.05154
1779702836327,18.36,1.062,-0.32295,17.560093,0.22013749,0.634975,-0.511775,-6.8939821,109.4149308,36.20000076293945,0.34550017,1.909,180.05154
1779702836336,-20.445002,17.407951,2.2009501,25.065733,-0.13213749,-0.133375,0.3194125,-6.8939821,109.4149308,36.20000076293945,0.34550017,1.909,180.05154
1779702836346,-2.979,13.710001,2.49,16.412477,-0.1799875,-0.57928747,0.7599625,-6.8939821,109.4149308,36.20000076293945,0.34550017,1.909,180.05154
1779702836356,26.53395,-0.85305005,-2.63205,24.624748,0.3488375,0.6934125,-1.2194875,-6.8939821,109.4149308,36.20000076293945,0.34550017,1.909,180.05154
1779702836372,-17.500051,16.56105,1.5300001,24.238962,-0.2396625,-0.0056375,0.308825,-6.8939821,109.4149308,36.20000076293945,0.34550017,1.909,180.05154
1779702836379,-10.530001,14.83905,5.19705,19.986357,-0.05335,-0.57722497,0.763125,-6.8939821,109.4149308,36.20000076293945,0.34550017,1.909,180.05154
1779702836394,25.701002,-0.49305,-3.9100502,24.798395,0.1285625,-0.2058375,-0.5138375,-6.8939821,109.4149308,36.20000076293945,0.34550017,1.909,180.05154
1779702836400,-10.614,15.010951,-0.26505002,19.668716,-0.1959375,-0.0738375,0.15125,-6.8939821,109.4149308,36.20000076293945,0.34550017,1.909,180.05154
1779702836411,-12.592051,16.32105,3.4050002,20.648394,-0.1172875,-0.3388,0.1332375,-6.8939821,109.4149308,36.20000076293945,0.34550017,1.909,180.05154
1779702836419,21.070951,-0.41700003,-1.7910001,21.050512,0.183975,0.2635875,-0.2520375,-6.8939821,109.4149308,36.20000076293945,0.34550017,1.909,180.05154
1779702836429,-7.6900506,13.852051,-0.76605004,16.899702,-0.2215125,-0.101475,0.031075,-6.8939821,109.4149308,36.20000076293945,0.34550017,1.909,180.05154
1779702836440,-11.46195,16.47195,3.6019502,19.69044,-0.12155,-0.25685,0.0268125,-6.8939821,109.4149308,36.20000076293945,0.34550017,1.909,180.05154
1779702836450,18.913052,-0.112950005,0.67005,19.078293,0.2041875,0.16885,-0.296725,-6.8939821,109.4149308,36.20000076293945,0.34550017,1.909,180.05154
1779702836465,-6.8629503,12.652051,-2.0299501,15.444455,0.148775,-0.2195875,-0.3733125,-6.8939821,109.4149308,36.20000076293945,0.34550017,1.909,180.05154
1779702836470,-12.682951,17.121,1.5010501,20.176693,-0.3003,-0.6985,0.6694875,-6.8939821,109.4149308,36.20000076293945,0.34550017,1.909,180.05154
1779702836481,18.913052,0.64095,0.00705,19.174467,0.4307875,0.4796,-0.9703375,-6.8939821,109.4149308,36.20000076293945,0.34550017,1.909,180.05154
1779702836492,-5.21505,11.91405,-0.82095003,14.25995,-0.0160875,0.086899996,-0.234025,-6.8939821,109.4149308,36.20000076293945,0.34550017,1.909,180.05154
1779702836500,-12.913051,17.08695,-0.38295,19.988756,-0.371525,-0.5027,0.5823125,-6.8939821,109.4149308,36.20000076293945,0.34550017,1.909,180.05154
1779702836516,17.140951,1.3740001,1.3120501,17.794483,0.1604625,-0.0801625,-0.2574,-6.8939821,109.4149308,36.20000076293945,0.34550017,1.909,180.05154
1779702836520,-3.38295,11.77305,0.07395,13.358637,0.14135,0.2028125,-0.410575,-6.8939821,109.4149308,36.20000076293945,0.34550017,1.909,180.05154
1779702836530,-11.613001,16.01205,-3.42195,18.730766,-0.4173125,-0.48565,0.3311,-6.8939821,109.4149308,36.20000076293945,0.34550017,1.909,180.05154
1779702836548,13.065001,2.499,3.0870001,14.670441,0.345675,-0.100375,-0.4659875,-6.8939821,109.4149308,36.20000076293945,0.34550017,1.909,180.05154
1779702836549,-1.5010501,10.623,1.863,11.645351,0.344575,0.2550625,-0.495825,-6.8939821,109.4149308,36.20000076293945,0.34550017,1.909,180.05154
1779702836558,-10.293,17.061,-5.74305,18.918344,-0.553575,-0.6219125,0.4184125,-6.8939821,109.4149308,36.20000076293945,0.34550017,1.909,180.05154
1779702836574,9.58005,3.2629502,5.6970005,13.0746975,0.3361875,-0.149325,-0.30745,-6.8939821,109.4149308,36.20000076293945,0.34550017,1.909,180.05154
1779702836582,-1.266,10.116,3.4990501,11.23787,0.3158375,0.0719125,-0.33715,-6.8939821,109.4149308,36.20000076293945,0.34550017,1.909,180.05154
1779702836597,-8.260051,16.137001,-7.7299504,18.01353,0.1126125,0.0507375,-0.4170375,-6.8939821,109.4149308,36.20000076293945,0.34550017,1.909,180.05154
1779702836600,8.083051,1.6540501,6.13605,11.828429,0.43725,-0.1419,-0.298925,-6.8939821,109.4149308,36.20000076293945,0.34550017,1.909,180.05154
1779702836615,-1.503,10.930051,0.74700004,11.212219,0.6447375,0.3498,-0.63621247,-6.8939821,109.4149308,36.20000076293945,0.34550017,1.909,180.05154
1779702836621,-7.419,14.57295,-5.83395,16.132236,-0.2459875,0.126225,-0.099825,-6.8939821,109.4149308,36.20000076293945,0.34550017,1.909,180.05154
1779702836631,6.8950505,1.7550001,5.18505,10.269469,0.395725,0.045375,-0.3658875,-6.8939821,109.4149308,36.20000076293945,0.34550017,1.909,180.05154
1779702836642,-3.49305,12.463051,1.69095,12.496525,0.0083875,-0.32395,0.1012,-6.8939821,109.4149308,36.20000076293945,0.34550017,1.909,180.05154
1779702836651,-2.181,15.18105,-7.6440005,16.208323,-0.291775,0.022,-0.2233,-6.8939821,109.4149308,36.20000076293945,0.34550017,1.909,180.05154
1779702836664,6.78,3.9870002,4.485,10.485081,0.5511,0.291225,-0.5852,-6.8939821,109.4149308,36.20000076293945,0.34550017,1.909,180.05154
1779702836671,-8.434051,13.854001,1.4059501,15.121136,-0.1332375,-0.5665,0.16293749,-6.8939821,109.4149308,36.20000076293945,0.34550017,1.909,180.05154
1779702836681,-0.82095003,13.1980505,-2.766,13.832025,-0.3014,-0.0738375,0.0257125,-6.8939821,109.4149308,36.20000076293945,0.34550017,1.909,180.05154
1779702836691,8.272051,5.2180505,5.58195,11.77531,0.69795,0.2528625,-0.5872625,-6.8939821,109.4149308,36.20000076293945,0.34550017,1.909,180.05154
1779702836701,-6.7099504,14.470051,-3.2610002,15.379099,-0.24915,-0.3738625,-0.122237496,-6.8939821,109.4149308,36.20000076293945,0.34550017,1.909,180.05154
1779702836723,-2.76495,10.009951,-2.2080002,11.569368,0.43505,-0.0961125,-0.23925,-6.8939821,109.4149308,36.20000076293945,0.34550017,1.909,180.05154
1779702836723,3.2910001,7.2679505,4.9500003,9.825201,0.43505,-0.0961125,-0.23925,-6.8939821,109.4149308,36.20000076293945,0.34550017,1.909,180.05154
1779702836732,-0.19800001,13.95495,-7.122,14.499862,-0.048125,-0.445225,-0.1254,-6.8939821,109.4149308,36.20000076293945,0.34550017,1.909,180.05154
1779702836752,-1.1920501,8.094001,-0.52905005,9.458691,-0.2545125,-0.280225,-0.249975,-6.8939821,109.4149308,36.20000076293945,0.34550017,1.909,180.05154
1779702836752,-3.0889502,10.302,2.7949502,10.781627,-0.2545125,-0.280225,-0.249975,-6.8939821,109.4149308,36.20000076293945,0.34550017,1.909,180.05154
1779702836763,1.6380001,14.400001,-7.9800005,15.391997,-0.340725,-0.4962375,-0.086075,-6.8939821,109.4149308,36.20000076293945,0.34550017,1.909,180.05154
1779702836772,4.1740503,6.2140503,4.09305,9.903772,0.084975,-0.25575,-0.3755125,-6.8939821,109.4149308,36.20000076293945,0.34550017,1.909,180.05154
1779702836784,-6.9330006,12.51105,0.38505003,13.427778,-0.0171875,-0.2536875,-0.0903375,-6.8939821,109.4149308,36.20000076293945,0.34550017,1.909,180.05154
1779702836791,-2.72895,13.621951,-3.86295,14.221298,-0.2481875,-0.0323125,-0.0627,-6.8939821,109.4149308,36.20000076293945,0.34550017,1.909,180.05154
1779702836800,7.7359505,5.2780504,4.22205,11.062424,0.3510375,0.096525,-0.4745125,-6.8939821,109.4149308,36.20000076293945,0.34550017,1.909,180.05154
1779702836818,-3.89805,11.428051,-4.0399504,12.398478,-0.3183125,-0.0312125,-0.148775,-6.8939821,109.4149308,36.20000076293945,0.34550017,1.909,180.05154
1779702836820,-6.0940504,10.161,-1.9150501,12.081388,-0.3183125,-0.0312125,-0.148775,-6.8939821,109.4149308,36.20000076293945,0.34550017,1.909,180.05154
1779702836830,3.2070003,7.0600505,3.4630501,9.210246,0.4074125,0.0889625,-0.3521375,-6.8939821,109.4149308,36.20000076293945,0.34550017,1.909,180.05154
1779702836841,1.19295,11.599951,-4.4160004,11.817476,-0.2343,-0.3069,-0.3031875,-6.8939821,109.4149308,36.20000076293945,0.34550017,1.909,180.05154
1779702836852,-2.4160502,8.254951,-0.25800002,9.247591,-0.1662375,0.1816375,-0.3339875,-6.8939821,109.4149308,36.20000076293945,0.34550017,1.909,180.05154
1779702836865,-4.8970504,11.81595,3.3739502,12.431958,0.166925,-0.149325,-0.066825,-6.8939821,109.4149308,36.20000076293945,0.34550017,1.909,180.05154
1779702836871,3.65895,11.48295,-2.57205,12.34496,-0.307725,0.115637496,-0.2435125,-6.8939821,109.4149308,36.20000076293945,0.34550017,1.909,180.05154
1779702836881,2.46705,5.98395,6.3300004,9.711661,0.18493749,-0.1706375,-0.3488375,-6.8939821,109.4149308,36.20000076293945,0.34550017,1.909,180.05154
1779702836899,-10.06995,14.53005,1.5660001,16.140442,-0.225775,-0.526075,0.1544125,-6.8939821,109.4149308,36.20000076293945,0.34550017,1.909,180.05154
1779702836900,4.00005,10.116,-4.7059503,12.710024,-0.225775,-0.526075,0.1544125,-6.8939821,109.4149308,36.20000076293945,0.34550017,1.909,180.05154
1779702836912,6.2050505,5.9430003,0.74205005,9.441166,0.28187498,0.161425,-0.590425,-6.8939821,109.4149308,36.20000076293945,0.34550017,1.909,180.05154
1779702836921,-9.547951,13.701,-3.21795,15.493785,0.17435,-0.12815,-0.17325,-6.8939821,109.4149308,36.20000076293945,0.34550017,1.909,180.05154
1779702836932,1.281,9.43995,-3.4390502,11.201326,-0.3683625,-0.35901248,-0.14135,-6.8939821,109.4149308,36.20000076293945,0.34550017,1.909,180.05154
1779702836946,3.7050002,5.886,6.5719504,9.895331,-0.0565125,-0.3430625,-0.3903625,-6.8939821,109.4149308,36.20000076293945,0.34550017,1.909,180.05154
1779702836952,-5.295,13.894951,-3.22305,14.151028,-0.1885125,-0.4591125,-0.2105125,-6.8939821,109.4149308,36.20000076293945,0.34550017,1.909,180.05154
1779702836962,-0.70095,10.000951,0.109950006,10.851077,-0.25025,-0.1376375,-0.1445125,-6.8939821,109.4149308,36.20000076293945,0.34550017,1.909,180.05154
1779702836975,0.54405004,9.17895,6.9090004,11.371378,0.31913748,-0.275,-0.296725,-6.8939821,109.4149308,36.20000076293945,0.34550017,1.909,180.05154
1779702836988,-1.51005,13.641001,-4.0129504,13.713463,-0.3641,-0.4654375,-0.1467125,-6.8939821,109.4149308,36.20000076293945,0.34550017,1.909,180.05154
1779702836991,-1.83105,10.863001,0.0139500005,11.555692,-0.3641,-0.4654375,-0.1467125,-6.8939821,109.4149308,36.20000076293945,0.34550017,1.909,180.05154
1779702837001,-1.7569501,9.694051,6.663,11.825995,0.395725,0.0422125,-0.460625,-6.8939821,109.4149308,36.20000076293945,0.34550017,1.909,180.05154
1779702837018,2.8860002,11.767951,-8.142,14.043715,-0.3034625,-0.7517125,-0.1871375,-6.8939821,109.4149308,36.20000076293945,0.34550017,1.909,180.05154
1779702837021,-1.5649501,7.9429502,-0.76095,9.31381,-0.3034625,-0.7517125,-0.1871375,-6.8939821,109.4149308,36.20000076293945,0.34550017,1.909,180.05154
1779702837032,-6.7600503,9.150001,2.6869502,11.214229,0.27445,-0.2611125,-0.3606625,-6.8939821,109.4149308,36.20000076293945,0.34550017,1.909,180.05154
1779702837043,4.191,9.346951,-7.4890504,12.394207,-0.2651,-0.25905,-0.3861,-6.8939821,109.4149308,36.20000076293945,0.34550017,1.909,180.05154
1779702837053,0.052950002,6.8149505,2.088,8.181113,0.2765125,-0.035475,-0.639375,-6.8939821,109.4149308,36.20000076293945,0.34550017,1.909,180.05154
1779702837065,-7.5030003,11.577001,-1.2970501,12.721473,-0.0991375,-0.61545,-0.0232375,-6.8939821,109.4149308,36.20000076293945,0.34550017,1.909,180.05154
1779702837072,0.68205005,10.422001,0.61305004,10.914112,-0.470525,-0.176,-0.348975,-6.8939821,109.4149308,36.20000076293945,0.34550017,1.909,180.05154
1779702837084,2.70405,9.592951,7.8940506,12.354238,0.379775,-0.03025,-0.5564625,-6.8939821,109.4149308,36.20000076293945,0.34550017,1.909,180.05154
1779702837101,-4.6810503,13.750951,2.8570502,14.314188,0.1285625,-0.1632125,-0.10835,-6.8939821,109.4149308,36.20000076293945,0.34550017,1.909,180.05154
1779702837102,-2.0659502,11.845051,3.2929502,12.836143,-0.062975,-0.8273375,0.1087625,-6.8939821,109.4149308,36.20000076293945,0.34550017,1.909,180.05154
1779702837115,3.5760002,12.369,1.25205,12.91626,0.27225,-0.1324125,-0.4585625,-6.8939821,109.4149308,36.20000076293945,0.34550017,1.909,180.05154
1779702837122,1.21395,13.870951,-5.5009503,14.560227,-0.321475,-0.233475,-0.544775,-6.8939821,109.4149308,36.20000076293945,0.34550017,1.909,180.05154
1779702837139,-3.177,7.42605,4.00605,10.124834,0.216975,-0.0631125,-0.6043125,-6.8939821,109.4149308,36.20000076293945,0.34550017,1.909,180.05154
1779702837146,-5.6509504,13.312951,3.1200001,13.861245,-0.0831875,-0.87835,0.08635,-6.8939821,109.4149308,36.20000076293945,0.34550017,1.909,180.05154
1779702837154,5.00295,9.358951,0.64605004,11.277753,0.3510375,-0.0983125,-0.5468375,-6.8939821,109.4149308,36.20000076293945,0.34550017,1.909,180.05154
1779702837169,0.31605002,6.5950503,-1.00995,7.599083,-0.078925,-0.69107497,-0.2585,-6.8939821,109.4149308,36.20000076293945,0.34550017,1.909,180.05154
1779702837182,-16.573051,13.453951,5.046,19.067684,-0.3130875,-0.3004375,-0.0796125,-6.8939821,109.4149308,36.20000076293945,0.34550017,1.909,180.05154
1779702837186,8.538,11.674951,-15.244051,20.62464,-0.4651625,-0.689975,-0.37345,-6.8939821,109.4149308,36.20000076293945,0.34550017,1.909,180.05154
1779702837201,9.199051,2.0370002,1.317,11.735716,0.1307625,-0.8922375,-0.1159125,-6.8939821,109.4149308,36.20000076293945,0.34550017,1.909,180.05154
1779702837207,-17.629051,13.83495,-1.55595,20.31797,-0.2459875,-0.7591375,0.389675,-6.8939821,109.4149308,36.20000076293945,0.34550017,1.909,180.05154
1779702837217,0.012,8.07495,-2.061,10.730657,0.0061875,-0.80808747,-0.051975,-6.8939821,109.4149308,36.20000076293945,0.34550017,1.909,180.05154
1779702837227,10.309951,3.9910502,5.3880005,11.984964,0.888525,-0.2036375,-0.5713125,-6.8939821,109.4149308,36.20000076293945,0.34550017,1.909,180.05154
1779702837236,-9.459001,18.795,-7.6540504,20.30894,0.034925,-0.8740875,0.2215125,-6.8939821,109.4149308,36.20000076293945,0.34550017,1.909,180.05154
1779702837254,0.97200006,9.51,-4.3060503,12.449472,0.7660125,-0.0556875,-0.6512,-6.8939821,109.4149308,36.20000076293945,0.34550017,1.909,180.05154
1779702837256,-1.1200501,9.534,6.636,11.82587,0.46915,-0.7836125,0.1161875,-6.8939821,109.4149308,36.20000076293945,0.34550017,1.909,180.05154
1779702837266,-4.6480503,18.141,-9.31095,19.09635,-0.6238375,-0.4068625,-0.1967625,-6.8939821,109.4149308,36.20000076293945,0.34550017,1.909,180.05154
1779702837288,7.2739506,0.40095,4.67205,10.742814,-0.3917375,-1.1572,0.322575,-6.8939821,109.4149308,36.20000076293945,0.34550017,1.909,180.05154
1779702837288,-5.979,10.97805,0.93600005,12.177071,-0.3917375,-1.1572,0.322575,-6.8939821,109.4149308,36.20000076293945,0.34550017,1.909,180.05154
1779702837298,-5.41905,12.42195,-3.1920002,13.574099,-0.32793748,-0.5644375,0.3513125,-6.8939821,109.4149308,36.20000076293945,0.34550017,1.909,180.05154
1779702837306,8.3869505,0.21900001,3.7909503,10.080044,0.4307875,-0.0408375,-0.624525,-6.8939821,109.4149308,36.20000076293945,0.34550017,1.909,180.05154
1779702837321,-8.580001,12.760051,-1.6830001,14.390636,-0.22687499,-0.676225,0.1651375,-6.8939821,109.4149308,36.20000076293945,0.34550017,1.909,180.05154
1779702837327,-6.9019504,14.589001,-4.63395,16.311205,-0.22687499,-0.676225,0.1651375,-6.8939821,109.4149308,36.20000076293945,0.34550017,1.909,180.05154
1779702837337,9.714001,3.3589501,1.7220001,11.599517,0.6373125,-0.0462,-0.6191625,-6.8939821,109.4149308,36.20000076293945,0.34550017,1.909,180.05154
1779702837349,-7.0620003,15.66705,-5.31405,16.710287,-0.4503125,-0.496375,0.2619375,-6.8939821,109.4149308,36.20000076293945,0.34550017,1.909,180.05154
1779702837357,-5.1480002,11.00205,2.7490501,13.305328,0.2255,-0.7943375,0.4098875,-6.8939821,109.4149308,36.20000076293945,0.34550017,1.909,180.05154
1779702837374,7.0530005,6.0540004,4.93305,11.079359,0.01375,-0.42185,0.027775,-6.8939821,109.4149308,36.20000076293945,0.34550017,1.909,180.05154
1779702837374,-3.2989502,15.262051,-2.73705,14.897946,0.01375,-0.42185,0.027775,-6.8939821,109.4149308,36.20000076293945,0.34550017,1.909,180.05154
1779702837386,-5.3689504,8.13,16.09395,18.030174,-0.0724625,-0.15785,-0.150975,-6.8939821,109.4149308,36.20000076293945,0.34550017,1.909,180.05154
1779702837400,1.9849501,13.344001,4.0350003,14.871093,0.7101875,0.09295,-0.1126125,-6.8939821,109.4149308,36.20000076293945,0.34550017,1.909,180.05154
1779702837405,1.5850501,14.524951,-7.97205,16.289839,-0.060225,-0.2316875,0.1469875,-6.8939821,109.4149308,36.20000076293945,0.34550017,1.909,180.05154
1779702837416,-3.489,7.66305,2.35905,10.253307,0.5718625,-0.6914875,0.4481125,-6.8939821,109.4149308,36.20000076293945,0.34550017,1.909,180.05154
1779702837425,-4.87995,12.07005,-7.5340505,14.084267,0.078099996,-0.0933625,-0.043449998,-6.8939821,109.4149308,36.20000076293945,0.34550017,1.909,180.05154
1779702837435,-4.15905,8.18805,0.53895,10.176519,0.349525,-0.392425,0.4076875,-6.8939821,109.4149308,36.20000076293945,0.34550017,1.909,180.05154
1779702837453,5.5590005,3.8620503,-1.4749501,7.577485,0.5143875,-0.113575,0.161975,-6.8939821,109.4149308,36.20000076293945,0.34550017,1.909,180.05154
1779702837455,-5.29005,11.1,-5.8219504,12.399313,0.3399,-0.243375,0.1353,-6.8939821,109.4149308,36.20000076293945,0.34550017,1.909,180.05154
1779702837466,-7.8430505,12.144001,-3.0270002,14.295864,0.1643125,-0.2316875,0.4439875,-6.8939821,109.4149308,36.20000076293945,0.34550017,1.909,180.05154
1779702837477,7.1320505,5.8690505,-5.8699503,11.614266,0.1898875,-0.2146375,0.34814999,-6.8939821,109.4149308,36.20000076293945,0.34550017,1.909,180.05154
1779702837487,-4.7580004,15.6,-4.4160004,15.840242,0.1898875,-0.2146375,0.34814999,-6.8939821,109.4149308,36.20000076293945,0.34550017,1.909,180.05154
1779702837496,-5.2060504,11.859,5.3380504,14.3747225,-0.1315875,-0.0273625,0.372625,-6.8939821,109.4149308,36.20000076293945,0.34550017,1.909,180.05154
1779702837506,3.8059502,4.99695,10.38,12.580998,0.7453875,0.014162499,0.2437875,-6.8939821,109.4149308,36.20000076293945,0.34550017,1.909,180.05154
1779702837521,-8.941951,16.810051,0.87405,17.764551,0.32505,0.017324999,0.5886375,-6.8939821,109.4149308,36.20000076293945,0.34550017,1.909,180.05154
1779702837527,3.4750502,8.158951,3.2260501,11.102294,0.3994375,0.1419,0.3012625,-6.8939821,109.4149308,36.20000076293945,0.34550017,1.909,180.05154
1779702837536,-0.96000004,9.450001,-0.21495001,9.821314,0.38885,-0.13915,0.64405,-6.8939821,109.4149308,36.20000076293945,0.34550017,1.909,180.05154
1779702837553,-9.415951,17.236052,-13.579051,21.066216,-0.21133749,0.4728625,0.20019999,-6.8939821,109.4149308,36.20000076293945,0.34550017,1.909,180.05154
1779702837559,11.974951,8.17605,-16.057951,21.521832,-0.21133749,0.4728625,0.20019999,-6.8939821,109.4149308,36.20000076293945,0.34550017,1.909,180.05154
1779702837574,1.506,7.2420006,-6.63105,12.25161,-0.39655,-0.20515,0.4514125,-6.8939821,109.4149308,36.20000076293945,0.34550017,1.909,180.05154
1779702837581,-17.871,10.96605,-2.7150002,19.364185,-0.46035,-0.243375,1.3017125,-6.8939821,109.4149308,36.20000076293945,0.34550017,1.909,180.05154
1779702837586,3.3270001,4.1779504,3.8119502,9.122152,0.0323125,-0.23595,0.7695875,-6.8939821,109.4149308,36.20000076293945,0.34550017,1.909,180.05154
1779702837604,9.537001,6.5059505,2.0400002,11.20333,0.346225,-0.294525,0.6854375,-6.8939821,109.4149308,36.20000076293945,0.34550017,1.909,180.05154
1779702837607,-11.059051,16.057951,0.85905004,17.853962,0.346225,-0.294525,0.6854375,-6.8939821,109.4149308,36.20000076293945,0.34550017,1.909,180.05154
1779702837617,-2.1450002,10.630051,4.1530504,12.860678,0.1153625,-0.14973749,0.85263747,-6.8939821,109.4149308,36.20000076293945,0.34550017,1.909,180.05154
1779702837629,1.8919501,17.013,1.9440001,16.354462,0.215325,0.4610375,0.363,-6.8939821,109.4149308,36.20000076293945,0.34550017,1.909,180.05154
1779702837637,1.57095,16.22295,-5.06505,16.925062,-0.0474375,0.0642125,0.864325,-6.8939821,109.4149308,36.20000076293945,0.34550017,1.909,180.05154
1779702837655,5.4870005,8.295,-4.93305,12.266424,-0.389125,0.555775,0.3130875,-6.8939821,109.4149308,36.20000076293945,0.34550017,1.909,180.05154
1779702837657,-7.9939504,10.39605,4.36305,13.510007,-0.389125,0.555775,0.3130875,-6.8939821,109.4149308,36.20000076293945,0.34550017,1.909,180.05154
1779702837667,-3.6060002,9.58395,-4.38705,11.614072,0.035475,-0.9340375,1.482525,-6.8939821,109.4149308,36.20000076293945,0.34550017,1.909,180.05154
1779702837684,10.51395,0.57600003,1.4290501,10.8238125,0.4569125,0.54835,0.3333,-6.8939821,109.4149308,36.20000076293945,0.34550017,1.909,180.05154
1779702837688,-3.4069502,10.278001,-5.19705,11.773224,0.4569125,0.54835,0.3333,-6.8939821,109.4149308,36.20000076293945,0.34550017,1.909,180.05154
1779702837698,-9.10995,9.67695,1.3410001,13.040945,-0.88825,-0.5743375,1.19955,-6.8939821,109.4149308,36.20000076293945,0.34550017,1.909,180.05154
1779702837707,8.93595,3.34995,1.9300501,10.397349,0.4505875,-0.07315,0.7354875,-6.8939821,109.4149308,36.20000076293945,0.34550017,1.909,180.05154
1779702837722,1.2930001,15.150001,-10.233001,16.741718,-0.87642497,-0.4860625,1.237775,-6.8939821,109.4149308,36.20000076293945,0.34550017,1.909,180.05154
1779702837728,-3.7830002,7.728,-0.83295006,10.263921,-0.4412375,0.309925,0.60775,-6.8939821,109.4149308,36.20000076293945,0.34550017,1.909,180.05154
1779702837738,-0.483,3.5680501,9.117001,9.894579,0.5698,-0.1199,0.9260625,-6.8939821,109.4149308,36.20000076293945,0.34550017,1.909,180.05154
1779702837749,-0.69795,16.338001,-6.56895,16.07728,-0.454025,0.117425,0.51315,-6.8939821,109.4149308,36.20000076293945,0.34550017,1.909,180.05154
1779702837758,6.97905,5.1390004,1.113,10.205975,-0.599775,-0.227425,1.1814,-6.8939821,109.4149308,36.20000076293945,0.34550017,1.909,180.05154
1779702837774,-1.9699501,10.19505,-3.2950501,10.756317,-0.10175,0.213125,0.715275,-6.8939821,109.4149308,36.20000076293945,0.34550017,1.909,180.05154
1779702837781,-2.9520001,18.426,-12.8869505,20.293905,-0.6956125,-0.4296875,1.06755,-6.8939821,109.4149308,36.20000076293945,0.34550017,1.909,180.05154
1779702837791,8.301001,6.9420004,-1.8460501,12.8407955,-0.1368125,0.8047875,-0.018975,-6.8939821,109.4149308,36.20000076293945,0.34550017,1.909,180.05154
1779702837801,-1.8379501,7.998,7.4550004,11.437814,-0.0528,0.26427498,0.534325,-6.8939821,109.4149308,36.20000076293945,0.34550017,1.909,180.05154
1779702837812,-6.9930005,16.374,-0.72495,16.543182,-1.042525,-0.3689125,1.10165,-6.8939821,109.4149308,36.20000076293945,0.34550017,1.909,180.05154
1779702837821,1.9210501,3.9529502,14.683051,15.57001,0.5963375,0.5930375,0.2778875,-6.8939821,109.4149308,36.20000076293945,0.34550017,1.909,180.05154
1779702837832,1.1850001,7.7730002,0.66105,9.42644,-0.2762375,0.571725,0.4162125,-6.8939821,109.4149308,36.20000076293945,0.34550017,1.909,180.05154
1779702837841,-9.21,15.04905,0.70605004,16.011496,-0.2187625,-0.3487,1.3740375,-6.8939821,109.4149308,36.20000076293945,0.34550017,1.909,180.05154
1779702837857,11.821951,1.28295,-1.7550001,12.818437,-0.2624875,0.115225,0.403425,-6.8939821,109.4149308,36.20000076293945,0.34550017,1.909,180.05154
1779702837862,7.6740003,11.967001,-27.961052,27.657684,-1.206425,0.87505,0.0639375,-6.8939821,109.4149308,36.20000076293945,0.34550017,1.909,180.05154
1779702837871,-11.60295,11.446951,-1.26405,18.609982,-0.1241625,-0.10615,1.1133375,-6.8939821,109.4149308,36.20000076293945,0.34550017,1.909,180.05154
1779702837887,5.9419503,5.80905,20.653952,21.532331,-0.3848625,0.2525875,0.5291,-6.8939821,109.4149308,36.20000076293945,0.34550017,1.909,180.05154
1779702837891,2.6149502,14.151001,18.688051,23.17582,1.084875,0.377025,0.48014998,-6.8939821,109.4149308,36.20000076293945,0.34550017,1.909,180.05154
1779702837902,-8.04405,28.945051,-8.751,29.667658,-0.4752,-0.2146375,1.076075,-6.8939821,109.4149308,36.20000076293945,0.34550017,1.909,180.05154
1779702837912,14.557051,9.208051,8.904,21.445635,0.6230125,0.4046625,0.0576125,-6.8939821,109.4149308,36.20000076293945,0.34550017,1.909,180.05154
1779702837922,0.441,14.929951,10.76805,19.01975,-0.6444625,0.3366,0.455675,-6.8939821,109.4149308,36.20000076293945,0.34550017,1.909,180.05154
1779702837934,-17.296051,16.60395,22.197,29.942673,0.301675,-0.0752125,0.97075,-6.8939821,109.4149308,36.20000076293945,0.34550017,1.909,180.05154
1779702837942,13.35,-1.3240501,17.193,23.434679,0.6326375,0.1951125,0.2044625,-6.8939821,109.4149308,36.20000076293945,0.34550017,1.909,180.05154
1779702837952,-8.06595,15.9210005,16.60905,24.191166,0.9912375,0.3823875,0.3598375,-6.8939821,109.4149308,36.20000076293945,0.34550017,1.909,180.05154
1779702837969,0.78795004,15.607051,1.75995,17.41881,0.903925,0.4365625,0.3194125,-6.8939821,109.4149308,36.20000076293945,0.34550017,1.909,180.05154
1779702837971,9.534,11.65995,-8.703,17.39994,0.903925,0.4365625,0.3194125,-6.8939821,109.4149308,36.20000076293945,0.34550017,1.909,180.05154
1779702837985,-3.6870003,22.36395,-19.97595,27.649773,-0.2039125,0.02365,0.8089125,-6.8939821,109.4149308,36.20000076293945,0.34550017,1.909,180.05154
1779702837990,14.977951,8.13,-16.78095,24.66378,0.1546875,0.4461875,0.052249998,-6.8939821,109.4149308,36.20000076293945,0.34550017,1.909,180.05154
1779702838004,4.2769504,2.02305,-12.65505,15.741207,0.348425,0.6089875,0.20019999,-6.8939821,109.4149308,36.20000076293945,0.34550017,1.909,180.05154
1779702838011,-11.3230505,3.522,-18.132,20.480484,-0.68805,0.0099,0.4896375,-6.8939821,109.4149308,36.20000076293945,0.34550017,1.909,180.05154
1779702838021,-3.8170502,-4.464,5.7049503,10.646511,-0.7082625,-0.1645875,0.4195125,-6.8939821,109.4149308,36.20000076293945,0.34550017,1.909,180.05154
1779702838037,5.81505,-7.7170506,4.87305,10.786851,0.5900125,0.2578125,0.5163125,-6.8939821,109.4149308,36.20000076293945,0.34550017,1.909,180.05154
1779702838040,-2.1090002,5.6970005,-22.122002,20.51012,-0.1038125,0.392975,0.390775,-6.8939821,109.4149308,36.20000076293945,0.34550017,1.909,180.05154
1779702838052,-2.1379502,7.3279505,-15.112051,17.64647,-1.1202124,0.2993375,0.90365,-6.8939821,109.4149308,36.20000076293945,0.34550017,1.909,180.05154
1779702838061,8.533051,-1.6789501,1.365,10.571795,0.6868125,0.4461875,0.5993625,-6.8939821,109.4149308,36.20000076293945,0.34550017,1.909,180.05154
1779702838091,-0.11400001,-0.51495004,30.733051,26.704422,0.3708375,0.3152875,0.584375,-6.8939821,109.4149308,36.20000076293945,0.34550017,1.909,180.05154
1779702838102,12.38895,7.2319503,-0.402,16.821617,-1.6566,1.048575,-0.2212375,-6.8939821,109.4149308,36.20000076293945,0.34550017,1.909,180.05154
1779702838113,-16.60095,11.766001,39.37905,38.82463,0.242,-0.2189,1.0888625,-6.8939821,109.4149308,36.20000076293945,0.34550017,1.909,180.05154
1779702838123,13.632001,8.64,4.65105,21.20191,1.0401875,0.5867125,0.0969375,-6.8939821,109.4149308,36.20000076293945,0.34550017,1.909,180.05154
1779702838152,-1.8379501,6.918,9.7570505,13.921269,-0.9967375,0.90915,-0.4989875,-6.8939821,109.4149308,36.20000076293945,0.34550017,1.909,180.05154
1779702838156,-23.86095,9.382951,25.831951,31.901115,-0.9967375,0.90915,-0.4989875,-6.8939821,109.4149308,36.20000076293945,0.34550017,1.909,180.05154
1779702838161,-23.743052,7.0020003,28.450052,36.54952,-0.471075,0.71335,-0.086075,-6.8939821,109.4149308,36.20000076293945,0.34550017,1.909,180.05154
1779702838173,-6.3100505,4.05405,11.87205,18.54407,-0.13255,0.3334375,0.6450125,-6.8939821,109.4149308,36.20000076293945,0.34550017,1.909,180.05154
1779702838173,9.954,1.5270001,13.876051,17.424992,-0.13255,0.3334375,0.6450125,-6.8939821,109.4149308,36.20000076293945,0.34550017,1.909,180.05154
1779702838177,6.7990503,3.45,21.081001,21.41889,0.4442625,0.6920375,0.3333,-6.8939821,109.4149308,36.20000076293945,0.34550017,1.909,180.05154
1779702838182,1.22595,9.366,5.83395,13.165576,0.4442625,0.6920375,0.3333,-6.8939821,109.4149308,36.20000076293945,0.34550017,1.909,180.05154
1779702838186,-2.358,20.79705,-9.019051,20.865759,0.8124875,0.7313625,0.2193125,-6.8939821,109.4149308,36.20000076293945,0.34550017,1.909,180.05154
1779702838192,-7.8880506,26.53305,-15.9529505,29.732128,0.2792625,0.3312375,0.4758875,-6.8939821,109.4149308,36.20000076293945,0.34550017,1.909,180.05154
1779702838202,4.359,23.02905,-22.615952,32.0026,0.2792625,0.3312375,0.4758875,-6.8939821,109.4149308,36.20000076293945,0.34550017,1.909,180.05154
1779702838202,26.506052,18.771002,-19.087952,36.539093,-0.2017125,0.556875,0.7673875,-6.8939821,109.4149308,36.20000076293945,0.34550017,1.909,180.05154
1779702838207,27.274052,20.68995,-16.11495,37.57743,-0.2017125,0.556875,0.7673875,-6.8939821,109.4149308,36.20000076293945,0.34550017,1.909,180.05154
1779702838214,25.465952,26.478,-20.094002,41.01408,-0.31033748,0.2685375,0.143825,-6.8939821,109.4149308,36.20000076293945,0.34550017,1.909,180.05154
1779702838219,25.40595,23.88705,-23.811,41.983448,-0.389125,1.0454125,-0.2893,-6.8939821,109.4149308,36.20000076293945,0.34550017,1.909,180.05154
1779702838222,11.803051,23.880001,-24.202951,37.18946,-0.9785875,0.8900375,-0.5852,-6.8939821,109.4149308,36.20000076293945,0.34550017,1.909,180.05154
1779702838227,0.09105001,20.983952,-16.14195,28.617462,-1.1169125,1.294425,-0.3872,-6.8939821,109.4149308,36.20000076293945,0.34550017,1.909,180.05154
1779702838236,-8.166,15.574051,-5.23995,20.40282,-1.1169125,1.294425,-0.3872,-6.8939821,109.4149308,36.20000076293945,0.34550017,1.909,180.05154
1779702838238,-15.339001,15.214951,3.04095,21.535,-1.1626999,0.8463125,-0.2127125,-6.8939821,109.4149308,36.20000076293945,0.34550017,1.909,180.05154
1779702838242,-17.02305,13.45905,11.400001,23.91745,-1.0531125,0.51535,-0.102025,-6.8939821,109.4149308,36.20000076293945,0.34550017,1.909,180.05154
1779702838250,-15.307951,15.234001,16.731,26.63879,-1.40965,0.213125,0.18315,-6.8939821,109.4149308,36.20000076293945,0.34550017,1.909,180.05154
1779702838253,-7.07595,6.3840003,34.840054,34.22375,-1.513875,0.2398,0.32793748,-6.8939821,109.4149308,36.20000076293945,0.34550017,1.909,180.05154
1779702838257,0.675,-7.04895,45.217953,43.459995,-1.513875,0.2398,0.32793748,-6.8939821,109.4149308,36.20000076293945,0.34550017,1.909,180.05154
1779702838272,4.00395,-10.03005,51.792004,51.0168,1.2678875,0.5313,-0.099825,-6.8939821,109.4149308,36.20000076293945,0.34550017,1.909,180.05154
1779702838272,-8.43,2.2480502,44.727,46.659348,1.2678875,0.5313,-0.099825,-6.8939821,109.4149308,36.20000076293945,0.34550017,1.909,180.05154
1779702838273,-8.146951,12.86505,11.62695,24.659092,1.3541,0.2173875,0.2938375,-6.8939821,109.4149308,36.20000076293945,0.34550017,1.909,180.05154
1779702838278,1.6500001,19.20705,-7.8570004,21.58577,0.3441625,0.1706375,0.054449998,-6.8939821,109.4149308,36.20000076293945,0.34550017,1.909,180.05154
1779702838285,-3.4789503,11.12895,3.183,13.986506,-0.8020375,0.392975,0.3045625,-6.8939821,109.4149308,36.20000076293945,0.34550017,1.909,180.05154
1779702838289,1.4940001,-0.34305,28.000051,25.230885,0.0686125,0.295075,0.1310375,-6.8939821,109.4149308,36.20000076293945,0.34550017,1.909,180.05154
1779702838293,5.21595,18.30195,22.702051,28.744963,2.0117624,0.0099,0.1214125,-6.8939821,109.4149308,36.20000076293945,0.34550017,1.909,180.05154
1779702838303,5.6659503,31.486052,-14.062951,33.705997,-1.1606375,-0.735075,-0.034925,-6.8939821,109.4149308,36.20000076293945,0.34550017,1.909,180.05154
1779702838304,21.39195,15.49005,-26.02605,36.40505,-1.1606375,-0.735075,-0.034925,-6.8939821,109.4149308,36.20000076293945,0.34550017,1.909,180.05154
1779702838309,24.94905,-16.36005,22.88895,37.363678,-3.1538374,1.39865,-0.8234875,-6.8939821,109.4149308,36.20000076293945,0.34550017,1.909,180.05154
1779702838315,-19.296001,-27.664951,78.537,75.85166,-3.1538374,1.39865,-0.8234875,-6.8939821,109.4149308,36.20000076293945,0.34550017,1.909,180.05154
1779702838319,-37.53405,-13.62495,64.059006,75.55841,3.8858874,-0.64033747,-0.53515,-6.8939821,109.4149308,36.20000076293945,0.34550017,1.909,180.05154
1779702838323,-13.94505,7.4070005,-24.928951,38.71888,4.9638877,0.044,0.54505,-6.8939821,109.4149308,36.20000076293945,0.34550017,1.909,180.05154
1779702838328,-4.8300004,26.349,-55.825054,57.279446,1.1242,0.2759625,0.1395625,-6.8939821,109.4149308,36.20000076293945,0.34550017,1.909,180.05154
1779702838339,-13.423051,17.229,-16.27095,33.244114,1.1242,0.2759625,0.1395625,-6.8939821,109.4149308,36.20000076293945,0.34550017,1.909,180.05154
1779702838339,-8.80605,-4.263,38.93505,38.76519,-0.4475625,-0.5435375,0.6727875,-6.8939821,109.4149308,36.20000076293945,0.34550017,1.909,180.05154
1779702838345,17.254051,-17.04495,34.119003,41.2418,2.41615,-0.5435375,0.7451125,-6.8939821,109.4149308,36.20000076293945,0.34550017,1.909,180.05154
1779702838349,32.03595,-1.8709501,-18.40995,37.84543,3.178175,-0.49568748,-0.0286,-6.8939821,109.4149308,36.20000076293945,0.34550017,1.909,180.05154
1779702838354,23.17905,15.82995,-42.966003,48.62657,1.4009875,0.6271375,-0.5649875,-6.8939821,109.4149308,36.20000076293945,0.34550017,1.909,180.05154
1779702838358,-4.6860003,15.472951,-22.414051,31.83429,1.4009875,0.6271375,-0.5649875,-6.8939821,109.4149308,36.20000076293945,0.34550017,1.909,180.05154
1779702838363,-25.861052,13.356001,15.079051,32.59118,-0.2858625,-0.00715,-0.1606,-6.8939821,109.4149308,36.20000076293945,0.34550017,1.909,180.05154
1779702838372,-8.09895,-9.55395,22.40505,27.052809,-0.2858625,-0.00715,-0.1606,-6.8939821,109.4149308,36.20000076293945,0.34550017,1.909,180.05154
1779702838377,18.64005,-10.05405,10.846951,24.44639,2.179925,0.1929125,0.0235125,-6.8939821,109.4149308,36.20000076293945,0.34550017,1.909,180.05154
1779702838394,12.91905,2.6190002,-9.55305,17.91287,2.179925,0.1929125,0.0235125,-6.8939821,109.4149308,36.20000076293945,0.34550017,1.909,180.05154
1779702838394,9.52995,19.281,-36.52605,37.492847,0.7348,0.08965,-0.28393748,-6.8939821,109.4149308,36.20000076293945,0.34550017,1.909,180.05154
1779702838394,11.99205,26.494951,-34.674,43.703125,0.7348,0.08965,-0.28393748,-6.8939821,109.4149308,36.20000076293945,0.34550017,1.909,180.05154
1779702838397,3.4819503,22.71795,-33.49395,41.23751,0.7348,0.08965,-0.28393748,-6.8939821,109.4149308,36.20000076293945,0.34550017,1.909,180.05154
1779702838401,12.04695,20.75205,-32.605053,40.63383,0.45374998,-0.260425,0.0672375,-6.8939821,109.4149308,36.20000076293945,0.34550017,1.909,180.05154
1779702838406,22.386002,19.626001,-43.596,50.35983,0.9827125,-0.065725,0.0757625,-6.8939821,109.4149308,36.20000076293945,0.34550017,1.909,180.05154
1779702838413,15.769051,30.982952,-54.682053,61.91008,0.99549997,0.0279125,-0.3084125,-6.8939821,109.4149308,36.20000076293945,0.34550017,1.909,180.05154
1779702838422,17.22495,37.86405,-56.947952,68.80019,-2.0471,0.30153748,-0.5149375,-6.8939821,109.4149308,36.20000076293945,0.34550017,1.909,180.05154
1779702838422,24.597002,23.524952,-55.516052,65.85514,-2.0471,0.30153748,-0.5149375,-6.8939821,109.4149308,36.20000076293945,0.34550017,1.909,180.05154
1779702838426,25.528051,11.29905,-36.715054,50.06955,-1.8693125,0.918775,-1.1545875,-6.8939821,109.4149308,36.20000076293945,0.34550017,1.909,180.05154
1779702838431,10.066051,9.708,-12.018001,24.765247,-1.8693125,0.918775,-1.1545875,-6.8939821,109.4149308,36.20000076293945,0.34550017,1.909,180.05154
1779702838437,-17.48805,6.1540504,6.64095,20.70729,-1.8363125,0.8303625,-1.3151875,-6.8939821,109.4149308,36.20000076293945,0.34550017,1.909,180.05154
1779702838441,-17.052,-8.007,8.50905,20.67819,-1.6842375,-0.2572625,-0.919325,-6.8939821,109.4149308,36.20000076293945,0.34550017,1.909,180.05154
1779702838458,-19.971,-14.563951,34.33905,37.983486,-1.8151375,0.477125,-0.8023125,-6.8939821,109.4149308,36.20000076293945,0.34550017,1.909,180.05154
1779702838458,-37.375954,-13.1629505,48.76905,57.8673,0.33673748,-0.310475,0.5599,-6.8939821,109.4149308,36.20000076293945,0.34550017,1.909,180.05154
1779702838458,-15.847051,-18.54,46.807953,53.798344,0.33673748,-0.310475,0.5599,-6.8939821,109.4149308,36.20000076293945,0.34550017,1.909,180.05154
1779702838461,11.629951,-21.277052,34.468952,44.474495,1.230625,0.407825,-0.050875,-6.8939821,109.4149308,36.20000076293945,0.34550017,1.909,180.05154
1779702838467,6.47805,-5.02995,18.625952,25.176258,1.230625,0.407825,-0.050875,-6.8939821,109.4149308,36.20000076293945,0.34550017,1.909,180.05154
1779702838472,-1.0699501,12.340951,-23.427002,26.235529,0.3207875,0.0215875,-0.1722875,-6.8939821,109.4149308,36.20000076293945,0.34550017,1.909,180.05154
1779702838476,1.8700501,25.027052,-21.198002,31.528118,0.3207875,0.0215875,-0.1722875,-6.8939821,109.4149308,36.20000076293945,0.34550017,1.909,180.05154
1779702838494,-14.166,11.133,0.10695001,20.719633,-0.8306375,0.013062499,-0.5086125,-6.8939821,109.4149308,36.20000076293945,0.34550017,1.909,180.05154
1779702838494,5.46105,-2.7970502,23.121,23.280943,-0.8306375,0.013062499,-0.5086125,-6.8939821,109.4149308,36.20000076293945,0.34550017,1.909,180.05154
1779702838494,17.587051,12.465,13.258051,24.901983,2.3694,0.1843875,-0.3532375,-6.8939821,109.4149308,36.20000076293945,0.34550017,1.909,180.05154
1779702838498,1.7170501,29.629951,-41.088,45.52948,-0.303875,0.0290125,-0.1159125,-6.8939821,109.4149308,36.20000076293945,0.34550017,1.909,180.05154
1779702838503,8.512051,35.682003,-28.552952,46.29455,-1.5756125,0.12375,-0.6139375,-6.8939821,109.4149308,36.20000076293945,0.34550017,1.909,180.05154
1779702838507,1.3480501,25.932001,7.2060003,30.817574,-1.5756125,0.12375,-0.6139375,-6.8939821,109.4149308,36.20000076293945,0.34550017,1.909,180.05154
1779702838513,-14.11995,20.851952,41.877003,45.256104,0.74965,-0.7414,0.3672625,-6.8939821,109.4149308,36.20000076293945,0.34550017,1.909,180.05154
1779702838526,18.112951,17.95005,14.034,32.337082,0.74965,-0.7414,0.3672625,-6.8939821,109.4149308,36.20000076293945,0.34550017,1.909,180.05154
1779702838526,27.696001,3.8860502,-28.320002,38.30895,-2.6717625,0.5622375,-1.3971375,-6.8939821,109.4149308,36.20000076293945,0.34550017,1.909,180.05154
1779702838527,-5.8980002,-5.058,25.624052,29.082703,-2.6717625,0.5622375,-1.3971375,-6.8939821,109.4149308,36.20000076293945,0.34550017,1.909,180.05154
1779702838532,-46.861954,-7.3429503,78.537,79.21637,2.3907125,-0.53185,-0.3202375,-6.8939821,109.4149308,36.20000076293945,0.34550017,1.909,180.05154
1779702838538,-40.506,-6.1770005,49.78995,67.42889,2.3907125,-0.53185,-0.3202375,-6.8939821,109.4149308,36.20000076293945,0.34550017,1.909,180.05154
1779702838562,5.17995,27.048,-49.54005,58.82992,0.1175625,-0.3136375,-1.25675,-6.8939821,109.4149308,36.20000076293945,0.34550017,1.909,180.05154
1779702838563,31.377,40.38105,-78.420006,86.66258,0.1175625,-0.3136375,-1.25675,-6.8939821,109.4149308,36.20000076293945,0.34550017,1.909,180.05154
1779702838563,35.247,28.270052,-45.126003,68.41929,0.1175625,-0.3136375,-1.25675,-6.8939821,109.4149308,36.20000076293945,0.34550017,1.909,180.05154
1779702838563,24.379051,3.8910003,8.404051,34.546932,0.1175625,-0.3136375,-1.25675,-6.8939821,109.4149308,36.20000076293945,0.34550017,1.909,180.05154
1779702838563,-15.259951,-6.0880504,56.929054,54.311314,0.1175625,-0.3136375,-1.25675,-6.8939821,109.4149308,36.20000076293945,0.34550017,1.909,180.05154
1779702838567,-10.68105,14.191951,12.8869505,28.418022,2.7333624,-0.4945875,-0.2701875,-6.8939821,109.4149308,36.20000076293945,0.34550017,1.909,180.05154
1779702838571,-0.54495,31.045952,-37.311,44.516655,1.5137374,0.7079875,-0.1626625,-6.8939821,109.4149308,36.20000076293945,0.34550017,1.909,180.05154
1779702838575,-11.60805,31.417051,-31.234951,45.541237,1.5137374,0.7079875,-0.1626625,-6.8939821,109.4149308,36.20000076293945,0.34550017,1.909,180.05154
1779702838583,2.505,15.385051,-3.966,21.97567,-2.007775,-0.294525,0.2311375,-6.8939821,109.4149308,36.20000076293945,0.34550017,1.909,180.05154
1779702838594,12.624001,-4.71105,23.491951,26.060682,-2.007775,-0.294525,0.2311375,-6.8939821,109.4149308,36.20000076293945,0.34550017,1.909,180.05154
1779702838594,6.234,-0.64905006,23.29095,24.507772,-2.007775,-0.294525,0.2311375,-6.8939821,109.4149308,36.20000076293945,0.34550017,1.909,180.05154
1779702838596,10.30605,7.3969502,-7.6920004,16.770073,0.6549125,-0.33275,-0.4329875,-6.8939821,109.4149308,36.20000076293945,0.34550017,1.909,180.05154
1779702838601,4.9410005,12.28995,-17.04195,20.6215,0.87835,-0.1519375,-0.3777125,-6.8939821,109.4149308,36.20000076293945,0.34550017,1.909,180.05154
1779702838606,-16.07895,18.429,-8.301001,24.786419,-0.336875,0.073699996,-0.5809375,-6.8939821,109.4149308,36.20000076293945,0.34550017,1.909,180.05154
1779702838611,-14.57505,9.976951,-3.348,19.339066,-0.336875,0.073699996,-0.5809375,-6.8939821,109.4149308,36.20000076293945,0.34550017,1.909,180.05154
1779702838623,-5.4430504,-0.59205,21.598051,21.692797,0.494175,-0.4360125,0.094875,-6.8939821,109.4149308,36.20000076293945,0.34550017,1.909,180.05154
1779702838624,-8.02005,-0.38595003,25.95,26.06961,0.494175,-0.4360125,0.094875,-6.8939821,109.4149308,36.20000076293945,0.34550017,1.909,180.05154
1779702838628,5.16405,3.6490502,6.8610005,12.67824,0.69107497,-0.3284875,0.2118875,-6.8939821,109.4149308,36.20000076293945,0.34550017,1.909,180.05154
1779702838631,11.7949505,8.908051,-6.15495,15.344585,0.69107497,-0.3284875,0.2118875,-6.8939821,109.4149308,36.20000076293945,0.34550017,1.909,180.05154
1779702838636,3.5470502,6.1060505,-7.29195,11.189527,-0.1634875,0.2077625,-0.3106125,-6.8939821,109.4149308,36.20000076293945,0.34550017,1.909,180.05154
1779702838641,-4.6860003,8.571,6.3300004,11.549904,-0.1634875,0.2077625,-0.3106125,-6.8939821,109.4149308,36.20000076293945,0.34550017,1.909,180.05154
1779702838647,-10.168051,8.868,12.70005,17.13314,0.544225,0.263175,0.0171875,-6.8939821,109.4149308,36.20000076293945,0.34550017,1.909,180.05154
1779702838652,-9.40905,12.894001,1.0200001,16.222275,0.3548875,-0.5572875,0.11935,-6.8939821,109.4149308,36.20000076293945,0.34550017,1.909,180.05154
1779702838656,3.21405,12.06,-6.1309505,14.368836,0.3548875,-0.5572875,0.11935,-6.8939821,109.4149308,36.20000076293945,0.34550017,1.909,180.05154
1779702838661,12.247951,11.35095,-2.26305,16.35508,0.3793625,0.0077,0.052249998,-6.8939821,109.4149308,36.20000076293945,0.34550017,1.909,180.05154
1779702838671,5.4150004,14.005051,-8.81505,17.20041,0.2536875,-0.226325,-0.10945,-6.8939821,109.4149308,36.20000076293945,0.34550017,1.909,180.05154
1779702838672,10.569,12.87195,-6.15,17.643482,0.113299996,0.2429625,0.0757625,-6.8939821,109.4149308,36.20000076293945,0.34550017,1.909,180.05154
1779702838676,3.384,9.184051,-1.33305,11.431112,-0.1230625,-0.0592625,-0.461725,-6.8939821,109.4149308,36.20000076293945,0.34550017,1.909,180.05154
1779702838681,-3.9799502,15.619051,-5.0149503,15.790462,-0.1230625,-0.0592625,-0.461725,-6.8939821,109.4149308,36.20000076293945,0.34550017,1.909,180.05154
1779702838687,3.62805,10.51305,-2.08095,12.209672,0.2047375,0.0642125,0.125675,-6.8939821,109.4149308,36.20000076293945,0.34550017,1.909,180.05154
1779702838691,-1.3980001,10.03905,-8.061001,12.802373,-0.36135,-0.3636875,-0.095699996,-6.8939821,109.4149308,36.20000076293945,0.34550017,1.909,180.05154
1779702838696,2.8330503,7.7899504,5.13,10.358994,-0.06765,0.44935,0.1384625,-6.8939821,109.4149308,36.20000076293945,0.34550017,1.909,180.05154
1779702838705,-0.63900006,9.364051,4.086,10.261126,0.09735,-0.4360125,-0.199925,-6.8939821,109.4149308,36.20000076293945,0.34550017,1.909,180.05154
1779702838706,3.0630002,15.607051,0.21000001,14.777158,0.1643125,0.068475,0.2470875,-6.8939821,109.4149308,36.20000076293945,0.34550017,1.909,180.05154
1779702838711,9.678,7.66305,-5.3239503,13.710315,-0.3763375,-0.162525,-0.14245,-6.8939821,109.4149308,36.20000076293945,0.34550017,1.909,180.05154
1779702838717,1.9660501,8.532001,13.110001,15.353994,-0.257125,0.2503875,-0.3169375,-6.8939821,109.4149308,36.20000076293945,0.34550017,1.909,180.05154
1779702838722,-5.4529505,5.64195,6.32205,11.131948,0.363275,0.002475,-0.2138125,-6.8939821,109.4149308,36.20000076293945,0.34550017,1.909,180.05154
1779702838727,-2.02095,10.354951,-3.5419502,11.129591,0.6411625,0.099275,-0.1936,-6.8939821,109.4149308,36.20000076293945,0.34550017,1.909,180.05154
1779702838740,-7.005,15.979051,-19.593,23.214079,0.6411625,0.099275,-0.1936,-6.8939821,109.4149308,36.20000076293945,0.34550017,1.909,180.05154
1779702838741,1.7890501,10.446,-8.92605,15.727768,-0.6114625,0.0226875,0.2300375,-6.8939821,109.4149308,36.20000076293945,0.34550017,1.909,180.05154
1779702838742,4.94595,2.868,1.4820001,7.8705792,-0.7412625,-0.4147,0.02255,-6.8939821,109.4149308,36.20000076293945,0.34550017,1.909,180.05154
1779702838746,6.18405,-0.10095,16.018051,15.310622,-0.0292875,0.45155,-9.625E-4,-6.8939821,109.4149308,36.20000076293945,0.34550017,1.909,180.05154
1779702838755,-1.02405,-0.08895,8.104051,9.597308,0.1876875,-0.3562625,-0.27445,-6.8939821,109.4149308,36.20000076293945,0.34550017,1.909,180.05154
1779702838757,-3.1030502,9.021001,9.31095,12.58383,0.4697,0.44935,-0.0297,-6.8939821,109.4149308,36.20000076293945,0.34550017,1.909,180.05154
1779702838761,-10.486951,7.0999503,-4.5360003,13.278498,0.4697,0.44935,-0.0297,-6.8939821,109.4149308,36.20000076293945,0.34550017,1.909,180.05154
1779702838774,-3.66105,9.165,2.2150502,10.747453,0.0760375,-0.3136375,0.2630375,-6.8939821,109.4149308,36.20000076293945,0.34550017,1.909,180.05154
1779702838774,0.85005003,3.9840002,2.4550502,5.9545074,0.0760375,-0.3136375,0.2630375,-6.8939821,109.4149308,36.20000076293945,0.34550017,1.909,180.05154
1779702838776,4.644,7.2460504,13.840051,14.229158,0.0760375,-0.3136375,0.2630375,-6.8939821,109.4149308,36.20000076293945,0.34550017,1.909,180.05154
1779702838784,2.67,8.34795,4.9429502,10.895674,0.061049998,0.097075,0.128975,-6.8939821,109.4149308,36.20000076293945,0.34550017,1.909,180.05154
1779702838787,8.718,5.1340504,1.149,10.325092,0.463375,-0.30621248,0.177925,-6.8939821,109.4149308,36.20000076293945,0.34550017,1.909,180.05154
1779702838792,-2.14695,13.746,-10.291051,15.909126,0.9912375,-0.2498375,-0.2116125,-6.8939821,109.4149308,36.20000076293945,0.34550017,1.909,180.05154
1779702838798,-3.8689501,21.087002,-21.31995,27.370031,0.9912375,-0.2498375,-0.2116125,-6.8939821,109.4149308,36.20000076293945,0.34550017,1.909,180.05154
1779702838807,-0.88305,18.667952,-26.445002,31.379812,-1.137125,0.3025,0.4343625,-6.8939821,109.4149308,36.20000076293945,0.34550017,1.909,180.05154
1779702838807,2.8159502,13.79205,-4.57905,18.118069,-1.137125,0.3025,0.4343625,-6.8939821,109.4149308,36.20000076293945,0.34550017,1.909,180.05154
1779702838813,6.9409504,4.9450502,11.158051,14.855921,-1.137125,0.3025,0.4343625,-6.8939821,109.4149308,36.20000076293945,0.34550017,1.909,180.05154
1779702838819,15.45705,10.465051,6.018,18.661263,0.496375,0.13653749,0.111925,-6.8939821,109.4149308,36.20000076293945,0.34550017,1.909,180.05154
1779702838822,13.434001,10.365001,-17.71095,23.35401,0.2239875,0.011,-0.297825,-6.8939821,109.4149308,36.20000076293945,0.34550017,1.909,180.05154
1779702838828,2.77305,13.9810505,-6.87795,17.331692,-0.535975,0.54408747,-0.56815,-6.8939821,109.4149308,36.20000076293945,0.34550017,1.909,180.05154
1779702838839,-17.89005,9.691951,1.4130001,19.782896,-0.1188,0.1035375,0.24805,-6.8939821,109.4149308,36.20000076293945,0.34550017,1.909,180.05154
1779702838839,-14.992051,11.49495,8.245951,20.44689,-0.1188,0.1035375,0.24805,-6.8939821,109.4149308,36.20000076293945,0.34550017,1.909,180.05154
1779702838842,-6.16905,10.17105,2.7109501,13.849924,-0.1720125,-0.670175,0.3982,-6.8939821,109.4149308,36.20000076293945,0.34550017,1.909,180.05154
1779702838852,10.533001,5.5030503,2.8470001,12.546139,-0.1720125,-0.670175,0.3982,-6.8939821,109.4149308,36.20000076293945,0.34550017,1.909,180.05154
1779702838853,16.45605,-0.63195,10.02,17.9308,-0.1720125,-0.670175,0.3982,-6.8939821,109.4149308,36.20000076293945,0.34550017,1.909,180.05154
1779702838857,5.4289503,0.56895,5.9149504,10.025233,-0.158125,-0.1263625,-0.14355,-6.8939821,109.4149308,36.20000076293945,0.34550017,1.909,180.05154
1779702838863,-9.35595,8.616,3.2280002,12.502719,0.2814625,0.6441875,-0.2264625,-6.8939821,109.4149308,36.20000076293945,0.34550017,1.909,180.05154
1779702838873,-16.53405,18.57195,-6.7510505,23.113066,-0.4720375,-0.553025,0.4992625,-6.8939821,109.4149308,36.20000076293945,0.34550017,1.909,180.05154
1779702838873,-6.19995,10.942051,-12.978001,19.080196,-0.4720375,-0.553025,0.4992625,-6.8939821,109.4149308,36.20000076293945,0.34550017,1.909,180.05154
1779702838878,10.236,3.9460502,-3.69,13.075434,-0.79983747,0.1120625,0.485375,-6.8939821,109.4149308,36.20000076293945,0.34550017,1.909,180.05154
1779702838886,9.463051,-0.06705,8.337001,12.704588,-0.79983747,0.1120625,0.485375,-6.8939821,109.4149308,36.20000076293945,0.34550017,1.909,180.05154
1779702838889,3.1660502,9.387,4.6150503,11.283945,0.308,0.246125,0.045925,-6.8939821,109.4149308,36.20000076293945,0.34550017,1.909,180.05154
1779702838892,0.9889501,18.927,-8.95905,19.027697,0.308,0.246125,0.045925,-6.8939821,109.4149308,36.20000076293945,0.34550017,1.909,180.05154
1779702838898,1.353,20.66595,-15.165001,24.340612,-0.648725,0.3025,0.1373625,-6.8939821,109.4149308,36.20000076293945,0.34550017,1.909,180.05154
1779702838907,-1.1850001,11.51895,-2.69595,14.379669,-0.8892125,-0.212575,0.0086624995,-6.8939821,109.4149308,36.20000076293945,0.34550017,1.909,180.05154
1779702838909,2.6250002,6.2569504,15.618001,16.49855,-0.4901875,0.48235,0.190575,-6.8939821,109.4149308,36.20000076293945,0.34550017,1.909,180.05154
1779702838914,-5.0170503,11.734951,14.166,18.553413,0.5251125,-0.26675,-0.0562375,-6.8939821,109.4149308,36.20000076293945,0.34550017,1.909,180.05154
1779702838921,-0.79200006,19.638,-5.7229505,20.08687,0.465575,-0.1742125,0.2992,-6.8939821,109.4149308,36.20000076293945,0.34550017,1.909,180.05154
1779702838923,13.081051,13.26,-8.93505,20.544233,-0.2985125,-0.146575,0.0809875,-6.8939821,109.4149308,36.20000076293945,0.34550017,1.909,180.05154
1779702838928,7.4800506,6.73605,-7.7830505,14.288085,-0.6774625,0.41635,-0.120175,-6.8939821,109.4149308,36.20000076293945,0.34550017,1.909,180.05154
1779702838933,-3.34695,8.667001,7.4029503,12.361221,-0.6774625,0.41635,-0.120175,-6.8939821,109.4149308,36.20000076293945,0.34550017,1.909,180.05154
1779702838938,-11.787001,15.700951,8.95695,19.735945,-0.23045,0.073699996,-0.314875,-6.8939821,109.4149308,36.20000076293945,0.34550017,1.909,180.05154
1779702838944,-8.892,10.918051,6.8280005,16.466436,-0.286825,0.3355,0.098037496,-6.8939821,109.4149308,36.20000076293945,0.34550017,1.909,180.05154
1779702838949,10.630951,5.1199503,5.9989505,13.882895,-0.256025,-0.3221625,0.44494998,-6.8939821,109.4149308,36.20000076293945,0.34550017,1.909,180.05154
1779702838961,11.865001,2.811,-0.14295001,12.532001,-0.1676125,0.49307498,-0.0584375,-6.8939821,109.4149308,36.20000076293945,0.34550017,1.909,180.05154
1779702838961,3.7219503,13.89,0.38505003,14.014542,-0.1676125,0.49307498,-0.0584375,-6.8939821,109.4149308,36.20000076293945,0.34550017,1.909,180.05154
1779702838963,-5.517,12.457951,3.7570503,14.109636,-0.1676125,0.49307498,-0.0584375,-6.8939821,109.4149308,36.20000076293945,0.34550017,1.909,180.05154
1779702838972,-5.103,11.064,8.92605,14.905028,-0.0506,0.16733749,0.174625,-6.8939821,109.4149308,36.20000076293945,0.34550017,1.909,180.05154
1779702838977,-2.2840502,6.7000504,10.720051,13.258034,0.02915,-0.1678875,0.1491875,-6.8939821,109.4149308,36.20000076293945,0.34550017,1.909,180.05154
1779702838982,0.522,8.22105,5.1730504,10.433375,0.02915,-0.1678875,0.1491875,-6.8939821,109.4149308,36.20000076293945,0.34550017,1.909,180.05154
1779702838994,-3.8839502,9.46905,11.496,14.400076,0.465575,0.147125,0.4811125,-6.8939821,109.4149308,36.20000076293945,0.34550017,1.909,180.05154
1779702838995,-6.33405,13.612051,12.013051,18.26253,0.465575,0.147125,0.4811125,-6.8939821,109.4149308,36.20000076293945,0.34550017,1.909,180.05154
1779702838996,3.1330502,10.59195,3.108,12.832139,0.3782625,-0.423225,0.308825,-6.8939821,109.4149308,36.20000076293945,0.34550017,1.909,180.05154
1779702839001,11.853001,8.740951,-13.80195,18.713585,0.3782625,-0.423225,0.308825,-6.8939821,109.4149308,36.20000076293945,0.34550017,1.909,180.05154
1779702839006,8.148001,7.9480505,-1.59,12.937134,-0.13145,0.5366625,0.1023,-6.8939821,109.4149308,36.20000076293945,0.34550017,1.909,180.05154
1779702839012,-5.6010003,11.454,-1.8510001,12.8944435,0.087725,0.3014,0.1247125,-6.8939821,109.4149308,36.20000076293945,0.34550017,1.909,180.05154
1779702839028,-6.4030504,13.833,0.124050006,14.773743,-0.0133375,-0.292325,0.23539999,-6.8939821,109.4149308,36.20000076293945,0.34550017,1.909,180.05154
1779702839029,-1.8100501,12.766951,-5.41905,14.144384,-0.0133375,-0.292325,0.23539999,-6.8939821,109.4149308,36.20000076293945,0.34550017,1.909,180.05154
1779702839029,5.89905,8.22795,4.191,11.594719,-0.0133375,-0.292325,0.23539999,-6.8939821,109.4149308,36.20000076293945,0.34550017,1.909,180.05154
1779702839031,12.076051,7.3350005,2.3059502,13.771822,-0.0133375,-0.292325,0.23539999,-6.8939821,109.4149308,36.20000076293945,0.34550017,1.909,180.05154
1779702839037,6.1600504,8.48205,4.45905,11.867855,0.250525,-0.1519375,-0.2105125,-6.8939821,109.4149308,36.20000076293945,0.34550017,1.909,180.05154
1779702839042,-2.562,15.262051,-0.98595005,14.779148,0.06215,0.4153875,0.0576125,-6.8939821,109.4149308,36.20000076293945,0.34550017,1.909,180.05154
1779702839046,-4.9759502,10.554001,0.73305005,12.308798,0.06215,0.4153875,0.0576125,-6.8939821,109.4149308,36.20000076293945,0.34550017,1.909,180.05154
1779702839061,-1.065,12.927001,-5.07,13.602934,-0.2156,-0.4488,0.128975,-6.8939821,109.4149308,36.20000076293945,0.34550017,1.909,180.05154
1779702839061,2.26305,11.79405,-6.3960004,13.605581,-0.2156,-0.4488,0.128975,-6.8939821,109.4149308,36.20000076293945,0.34550017,1.909,180.05154
1779702839061,5.427,15.279,-4.7179503,16.230442,-0.2156,-0.4488,0.128975,-6.8939821,109.4149308,36.20000076293945,0.34550017,1.909,180.05154
1779702839068,9.54195,5.4550505,5.451,13.06101,-0.0570625,-0.0614625,-0.0232375,-6.8939821,109.4149308,36.20000076293945,0.34550017,1.909,180.05154
1779702839072,7.1269503,5.4960003,3.7570503,10.4143505,0.039875,0.31845,-0.14245,-6.8939821,109.4149308,36.20000076293945,0.34550017,1.909,180.05154
1779702839077,-2.1400502,7.27995,-1.5589501,8.280047,0.4772625,0.490875,-0.2212375,-6.8939821,109.4149308,36.20000076293945,0.34550017,1.909,180.05154
1779702839085,-9.679951,15.243001,-6.20205,16.92985,-0.1815,0.0950125,0.1310375,-6.8939821,109.4149308,36.20000076293945,0.34550017,1.909,180.05154
1779702839089,-9.982051,14.374051,0.45900002,17.390892,-0.4657125,-0.2635875,0.419375,-6.8939821,109.4149308,36.20000076293945,0.34550017,1.909,180.05154
1779702839092,1.2019501,3.7470002,7.3360505,10.1380205,-0.4657125,-0.2635875,0.419375,-6.8939821,109.4149308,36.20000076293945,0.34550017,1.909,180.05154
1779702839098,12.18795,-5.5800004,18.858002,20.536964,0.3091,0.0460625,-0.122237496,-6.8939821,109.4149308,36.20000076293945,0.34550017,1.909,180.05154
1779702839108,5.3650503,-2.184,17.15805,18.594957,0.971025,-0.04015,-0.054175,-6.8939821,109.4149308,36.20000076293945,0.34550017,1.909,180.05154
1779702839109,-6.372,10.174951,9.769051,16.101337,0.971025,-0.04015,-0.054175,-6.8939821,109.4149308,36.20000076293945,0.34550017,1.909,180.05154
1779702839112,-10.69995,14.518051,-11.670001,20.405409,0.971025,-0.04015,-0.054175,-6.8939821,109.4149308,36.20000076293945,0.34550017,1.909,180.05154
1779702839119,-4.5859504,12.73095,-9.622951,17.364677,0.0270875,-0.26675,0.41415,-6.8939821,109.4149308,36.20000076293945,0.34550017,1.909,180.05154
1779702839123,2.1990001,7.464,-8.0779505,12.44579,0.1579875,0.018424999,0.3928375,-6.8939821,109.4149308,36.20000076293945,0.34550017,1.909,180.05154
1779702839127,10.405951,7.9099503,-7.4050503,14.507435,0.1579875,0.018424999,0.3928375,-6.8939821,109.4149308,36.20000076293945,0.34550017,1.909,180.05154
1779702839133,12.84,14.503051,-9.927,20.314116,0.2239875,-0.10725,0.241725,-6.8939821,109.4149308,36.20000076293945,0.34550017,1.909,180.05154
1779702839139,6.7710004,13.950001,-8.533051,18.222189,-0.2932875,0.1376375,-0.070125,-6.8939821,109.4149308,36.20000076293945,0.34550017,1.909,180.05154
1779702839142,4.4500504,14.806951,-2.7799501,16.211744,-0.06545,0.3366,-0.1936,-6.8939821,109.4149308,36.20000076293945,0.34550017,1.909,180.05154
1779702839149,-4.73595,12.76395,2.4550502,14.309415,0.021724999,-0.1582625,0.01925,-6.8939821,109.4149308,36.20000076293945,0.34550017,1.909,180.05154
1779702839154,-6.3480005,15.432001,-0.84000003,16.228094,0.021724999,-0.1582625,0.01925,-6.8939821,109.4149308,36.20000076293945,0.34550017,1.909,180.05154
1779702839158,2.5890002,12.685051,0.26295,13.605004,-0.111237496,-0.260425,0.2673,-6.8939821,109.4149308,36.20000076293945,0.34550017,1.909,180.05154
1779702839162,10.606951,8.89605,-3.69,14.182609,-0.111237496,-0.260425,0.2673,-6.8939821,109.4149308,36.20000076293945,0.34550017,1.909,180.05154
1779702839174,8.95005,2.46105,3.6739502,10.822833,-0.2102375,0.7313625,-0.1945625,-6.8939821,109.4149308,36.20000076293945,0.34550017,1.909,180.05154
1779702839174,-3.65895,10.045951,12.961051,15.605946,-0.2102375,0.7313625,-0.1945625,-6.8939821,109.4149308,36.20000076293945,0.34550017,1.909,180.05154
1779702839175,-17.22195,9.531,15.225,23.028755,-0.2102375,0.7313625,-0.1945625,-6.8939821,109.4149308,36.20000076293945,0.34550017,1.909,180.05154
1779702839185,-7.2420006,10.827001,4.4929504,15.628843,0.3091,-0.2413125,-0.1051875,-6.8939821,109.4149308,36.20000076293945,0.34550017,1.909,180.05154
1779702839189,5.8489504,5.0550003,2.3850002,9.597937,0.2655125,-0.21779999,0.22893749,-6.8939821,109.4149308,36.20000076293945,0.34550017,1.909,180.05154
1779702839191,6.06405,7.8520503,-0.22200002,9.858421,-0.1166,0.182325,0.24805,-6.8939821,109.4149308,36.20000076293945,0.34550017,1.909,180.05154
1779702839196,5.6449504,9.483001,4.8640504,11.619955,0.3196875,0.09295,-0.0594,-6.8939821,109.4149308,36.20000076293945,0.34550017,1.909,180.05154
1779702839209,2.292,14.973001,6.576,15.5346,0.4824875,-0.144375,0.0023375,-6.8939821,109.4149308,36.20000076293945,0.34550017,1.909,180.05154
1779702839209,-4.97805,12.132001,5.223,14.399286,0.4824875,-0.144375,0.0023375,-6.8939821,109.4149308,36.20000076293945,0.34550017,1.909,180.05154
1779702839211,2.6820002,15.210001,-4.22895,15.690384,0.432575,0.4334,0.371525,-6.8939821,109.4149308,36.20000076293945,0.34550017,1.909,180.05154
1779702839218,4.9960504,16.24695,-10.81305,19.254572,0.512325,-0.154,0.0149875,-6.8939821,109.4149308,36.20000076293945,0.34550017,1.909,180.05154
1779702839222,0.9480001,18.28305,-20.271002,25.702518,0.512325,-0.154,0.0149875,-6.8939821,109.4149308,36.20000076293945,0.34550017,1.909,180.05154
1779702839226,10.758,10.462951,-12.631051,20.83257,-0.1507,0.1428625,0.2875125,-6.8939821,109.4149308,36.20000076293945,0.34550017,1.909,180.05154
1779702839231,7.5919504,2.20005,-8.76,13.605684,-0.49225,0.3067625,-0.2286625,-6.8939821,109.4149308,36.20000076293945,0.34550017,1.909,180.05154
1779702839241,-5.93205,7.35405,-0.025950002,10.279843,-0.4571875,0.19607499,0.110825,-6.8939821,109.4149308,36.20000076293945,0.34550017,1.909,180.05154
1779702839241,-9.02595,10.210951,-1.28805,13.007217,-0.4571875,0.19607499,0.110825,-6.8939821,109.4149308,36.20000076293945,0.34550017,1.909,180.05154
1779702839246,-6.9259505,6.28095,7.386,12.133608,-0.4954125,-0.21367499,0.0757625,-6.8939821,109.4149308,36.20000076293945,0.34550017,1.909,180.05154
1779702839251,-0.62205005,3.6829503,14.559001,14.451112,-0.516725,0.1502875,0.42473748,-6.8939821,109.4149308,36.20000076293945,0.34550017,1.909,180.05154
1779702839256,5.92995,4.116,21.081001,20.716305,-0.516725,0.1502875,0.42473748,-6.8939821,109.4149308,36.20000076293945,0.34550017,1.909,180.05154
1779702839261,4.7320504,10.048051,11.389951,16.870218,0.23773749,0.2429625,0.109725,-6.8939821,109.4149308,36.20000076293945,0.34550017,1.909,180.05154
1779702839266,2.256,11.365951,8.62605,14.930738,0.4750625,0.066275,-0.1403875,-6.8939821,109.4149308,36.20000076293945,0.34550017,1.909,180.05154
1779702839275,-3.58695,11.847,-2.766,13.13286,0.4750625,0.066275,-0.1403875,-6.8939821,109.4149308,36.20000076293945,0.34550017,1.909,180.05154
1779702839276,-4.947,19.414951,-12.022051,21.318909,0.91781247,-0.047575,0.061875,-6.8939821,109.4149308,36.20000076293945,0.34550017,1.909,180.05154
1779702839282,-2.8900502,26.718,-27.312002,34.91693,0.91781247,-0.047575,0.061875,-6.8939821,109.4149308,36.20000076293945,0.34550017,1.909,180.05154
1779702839287,7.8750005,21.343052,-15.46905,28.991865,-1.006225,-0.278575,0.487575,-6.8939821,109.4149308,36.20000076293945,0.34550017,1.909,180.05154
1779702839292,19.93605,7.4740505,1.4290501,22.869514,-1.0456874,0.2674375,0.322575,-6.8939821,109.4149308,36.20000076293945,0.34550017,1.909,180.05154
1779702839296,15.80895,-4.5529504,13.158001,21.426872,-0.19855,0.229075,-0.4563625,-6.8939821,109.4149308,36.20000076293945,0.34550017,1.909,180.05154
1779702839309,-2.35095,9.234,5.6950502,13.165999,0.23567499,0.19607499,-0.2585,-6.8939821,109.4149308,36.20000076293945,0.34550017,1.909,180.05154
1779702839309,-19.153952,19.879951,-1.4749501,24.749428,0.23567499,0.19607499,-0.2585,-6.8939821,109.4149308,36.20000076293945,0.34550017,1.909,180.05154
1779702839313,-17.569052,16.86195,-2.8249502,24.561758,-0.9988,-0.2220625,0.4673625,-6.8939821,109.4149308,36.20000076293945,0.34550017,1.909,180.05154
1779702839318,3.07995,0.78495,20.19,21.263271,-0.9988,-0.2220625,0.4673625,-6.8939821,109.4149308,36.20000076293945,0.34550017,1.909,180.05154
1779702839323,12.468,-8.16495,33.65205,33.696327,-0.13145,0.032175,0.126775,-6.8939821,109.4149308,36.20000076293945,0.34550017,1.909,180.05154
1779702839326,6.33195,-4.68195,28.182001,30.14852,0.8210125,0.0407,-0.1882375,-6.8939821,109.4149308,36.20000076293945,0.34550017,1.909,180.05154
1779702839331,-2.7580502,10.09605,10.806001,18.064499,0.8210125,0.0407,-0.1882375,-6.8939821,109.4149308,36.20000076293945,0.34550017,1.909,180.05154
1779702839342,-16.201052,17.764952,-8.15205,23.922874,0.2718375,-0.1593625,0.6642625,-6.8939821,109.4149308,36.20000076293945,0.34550017,1.909,180.05154
1779702839342,-10.884001,17.310001,-20.386051,27.88351,0.2718375,-0.1593625,0.6642625,-6.8939821,109.4149308,36.20000076293945,0.34550017,1.909,180.05154
1779702839346,7.9900503,10.474951,-14.841001,21.452637,0.2718375,-0.1593625,0.6642625,-6.8939821,109.4149308,36.20000076293945,0.34550017,1.909,180.05154
1779702839352,14.31,7.4620504,-16.068,22.509445,-0.0389125,-0.0507375,0.594,-6.8939821,109.4149308,36.20000076293945,0.34550017,1.909,180.05154
1779702839357,19.123951,8.48205,-7.3020005,22.228523,-0.1815,-0.1890625,0.4173125,-6.8939821,109.4149308,36.20000076293945,0.34550017,1.909,180.05154
1779702839362,11.071951,12.42405,-8.205,19.289255,0.109037496,0.3493875,0.0831875,-6.8939821,109.4149308,36.20000076293945,0.34550017,1.909,180.05154
1779702839372,-6.76695,15.136051,-1.1179501,17.151855,-0.082499996,0.41965,-0.33825,-6.8939821,109.4149308,36.20000076293945,0.34550017,1.909,180.05154
1779702839372,-13.579051,17.904001,5.214,21.88472,-0.1496,0.051425,0.100237496,-6.8939821,109.4149308,36.20000076293945,0.34550017,1.909,180.05154
1779702839377,-7.2030005,13.94505,8.241,18.558887,-0.1496,0.051425,0.100237496,-6.8939821,109.4149308,36.20000076293945,0.34550017,1.909,180.05154
1779702839383,5.511,9.64095,-4.5160503,13.302232,0.023924999,-0.4052125,0.519475,-6.8939821,109.4149308,36.20000076293945,0.34550017,1.909,180.05154
1779702839398,20.748001,1.7569501,-4.23105,19.658672,0.1750375,0.4131875,-0.27555,-6.8939821,109.4149308,36.20000076293945,0.34550017,1.909,180.05154
1779702839399,7.8220506,5.6059504,-5.2210503,12.690567,0.1750375,0.4131875,-0.27555,-6.8939821,109.4149308,36.20000076293945,0.34550017,1.909,180.05154
1779702839399,-10.408051,15.54705,1.1040001,17.531597,0.1750375,0.4131875,-0.27555,-6.8939821,109.4149308,36.20000076293945,0.34550017,1.909,180.05154
1779702839402,-14.6970005,17.63805,-4.0009503,22.1501,-0.271975,-0.1359875,0.2140875,-6.8939821,109.4149308,36.20000076293945,0.34550017,1.909,180.05154
1779702839407,0.23700002,10.456051,-1.6330501,12.898391,-0.39325,-0.1167375,0.57805,-6.8939821,109.4149308,36.20000076293945,0.34550017,1.909,180.05154
1779702839413,14.574,1.6660501,-4.0609503,14.756207,-0.1516625,-0.2327875,0.24915,-6.8939821,109.4149308,36.20000076293945,0.34550017,1.909,180.05154
1779702839428,16.702951,4.7910004,-4.82805,17.379044,-0.515625,0.38445,-0.0977625,-6.8939821,109.4149308,36.20000076293945,0.34550017,1.909,180.05154
1779702839428,1.33395,12.37905,1.3579501,13.495449,-0.515625,0.38445,-0.0977625,-6.8939821,109.4149308,36.20000076293945,0.34550017,1.909,180.05154
1779702839428,-13.246051,9.807,10.48995,18.328278,-0.515625,0.38445,-0.0977625,-6.8939821,109.4149308,36.20000076293945,0.34550017,1.909,180.05154
1779702839433,-8.985001,3.1219501,15.49995,18.214338,-0.0314875,-0.1753125,0.141625,-6.8939821,109.4149308,36.20000076293945,0.34550017,1.909,180.05154
1779702839438,-0.675,1.3110001,5.4960003,8.195168,0.2303125,0.0609125,0.1703625,-6.8939821,109.4149308,36.20000076293945,0.34550017,1.909,180.05154
1779702839442,-2.871,5.637,2.4090002,7.054372,-0.2176625,-0.211475,0.0352,-6.8939821,109.4149308,36.20000076293945,0.34550017,1.909,180.05154
1779702839447,-0.20505,2.085,13.692,12.4919615,-0.2176625,-0.211475,0.0352,-6.8939821,109.4149308,36.20000076293945,0.34550017,1.909,180.05154
1779702839460,0.48600003,-4.5550504,19.560001,18.569801,0.9284,0.4228125,0.175725,-6.8939821,109.4149308,36.20000076293945,0.34550017,1.909,180.05154
1779702839460,-1.9609501,4.55205,7.2130504,10.715426,0.9284,0.4228125,0.175725,-6.8939821,109.4149308,36.20000076293945,0.34550017,1.909,180.05154
1779702839463,-4.3699503,14.191951,-4.46805,14.548798,0.5996375,-0.0199375,0.02255,-6.8939821,109.4149308,36.20000076293945,0.34550017,1.909,180.05154
1779702839468,-4.28895,18.83805,-7.76595,19.567774,0.5996375,-0.0199375,0.02255,-6.8939821,109.4149308,36.20000076293945,0.34550017,1.909,180.05154
1779702839473,4.0140004,16.11495,3.7069502,17.52638,0.176,-0.1656875,0.3746875,-6.8939821,109.4149308,36.20000076293945,0.34550017,1.909,180.05154
1779702839478,11.961,10.21605,-8.98995,17.999468,0.176,-0.1656875,0.3746875,-6.8939821,109.4149308,36.20000076293945,0.34550017,1.909,180.05154
1779702839483,18.736052,14.803051,-9.958051,24.297066,0.0941875,-0.0614625,0.404525,-6.8939821,109.4149308,36.20000076293945,0.34550017,1.909,180.05154
1779702839496,7.9030504,19.269001,-22.204052,29.213766,-0.2985125,0.0056375,-0.2052875,-6.8939821,109.4149308,36.20000076293945,0.34550017,1.909,180.05154
1779702839496,1.008,19.188002,-27.042002,32.381363,-0.2985125,0.0056375,-0.2052875,-6.8939821,109.4149308,36.20000076293945,0.34550017,1.909,180.05154
1779702839498,0.043050002,15.571051,-22.861952,28.605034,-0.88605,0.473825,-0.0658625,-6.8939821,109.4149308,36.20000076293945,0.34550017,1.909,180.05154
1779702839503,-9.856951,16.632,5.439,21.78818,-1.0690625,-0.07425,-0.1211375,-6.8939821,109.4149308,36.20000076293945,0.34550017,1.909,180.05154
1779702839508,-2.358,7.701,10.329,14.83592,-1.0690625,-0.07425,-0.1211375,-6.8939821,109.4149308,36.20000076293945,0.34550017,1.909,180.05154
1779702839513,23.598001,-7.4100003,15.747001,26.424267,-0.3454,0.0556875,0.047025,-6.8939821,109.4149308,36.20000076293945,0.34550017,1.909,180.05154
1779702839519,11.236951,-6.366,7.96995,17.425764,0.2080375,0.6590375,-0.60005,-6.8939821,109.4149308,36.20000076293945,0.34550017,1.909,180.05154
1779702839530,-10.734,6.1330504,1.45605,13.443568,-0.0611875,0.1758625,-0.2030875,-6.8939821,109.4149308,36.20000076293945,0.34550017,1.909,180.05154
1779702839530,-22.44795,17.128052,-5.29005,25.670658,-0.0611875,0.1758625,-0.2030875,-6.8939821,109.4149308,36.20000076293945,0.34550017,1.909,180.05154
1779702839533,-21.597,17.99805,4.4830503,27.908968,-0.0611875,0.1758625,-0.2030875,-6.8939821,109.4149308,36.20000076293945,0.34550017,1.909,180.05154
1779702839539,3.35505,-1.46595,17.75595,20.085403,-0.8903125,-0.260425,0.58753747,-6.8939821,109.4149308,36.20000076293945,0.34550017,1.909,180.05154
1779702839550,26.560951,-9.336,35.508003,40.269207,-0.98395,-0.456225,0.594,-6.8939821,109.4149308,36.20000076293945,0.34550017,1.909,180.05154
1779702839552,5.7310505,-4.16505,34.953003,36.58486,1.250975,0.2993375,-0.461725,-6.8939821,109.4149308,36.20000076293945,0.34550017,1.909,180.05154
1779702839561,-14.214001,14.352,15.615001,27.741993,1.250975,0.2993375,-0.461725,-6.8939821,109.4149308,36.20000076293945,0.34550017,1.909,180.05154
1779702839561,-15.375001,25.063051,-10.576051,30.546322,1.250975,0.2993375,-0.461725,-6.8939821,109.4149308,36.20000076293945,0.34550017,1.909,180.05154
1779702839572,-8.26395,24.976952,-36.84405,42.32749,1.0742875,-0.2657875,0.439725,-6.8939821,109.4149308,36.20000076293945,0.34550017,1.909,180.05154
1779702839573,15.594001,15.775051,-31.96095,39.588764,-1.1765875,-0.1423125,0.502425,-6.8939821,109.4149308,36.20000076293945,0.34550017,1.909,180.05154
1779702839576,29.812952,2.4439502,-10.365001,33.24402,-0.809325,0.636625,-0.3117125,-6.8939821,109.4149308,36.20000076293945,0.34550017,1.909,180.05154
1779702839581,10.885051,2.4850502,14.062951,21.013794,-0.809325,0.636625,-0.3117125,-6.8939821,109.4149308,36.20000076293945,0.34550017,1.909,180.05154
1779702839590,-5.46,12.74295,7.8100505,16.932346,0.793375,0.571725,-0.089237496,-6.8939821,109.4149308,36.20000076293945,0.34550017,1.909,180.05154
1779702839592,-4.45095,19.827002,-9.084001,21.193254,0.793375,0.571725,-0.089237496,-6.8939821,109.4149308,36.20000076293945,0.34550017,1.909,180.05154
1779702839596,-8.899051,23.31495,-11.062051,26.076586,-1.0637,-0.1571625,0.34595,-6.8939821,109.4149308,36.20000076293945,0.34550017,1.909,180.05154
1779702839607,1.866,6.5350504,2.56905,11.027792,0.040975,0.4345,-0.2787125,-6.8939821,109.4149308,36.20000076293945,0.34550017,1.909,180.05154
1779702839608,12.02805,-6.5170503,24.010052,24.312622,0.040975,0.4345,-0.2787125,-6.8939821,109.4149308,36.20000076293945,0.34550017,1.909,180.05154
1779702839612,-3.9820502,0.27195,27.08295,26.762907,0.040975,0.4345,-0.2787125,-6.8939821,109.4149308,36.20000076293945,0.34550017,1.909,180.05154
1779702839616,-9.048,13.939951,2.2459502,18.76858,1.2307625,0.0683375,-0.10835,-6.8939821,109.4149308,36.20000076293945,0.34550017,1.909,180.05154
1779702839624,-0.55200005,24.28395,-14.767051,26.495125,-0.2613875,0.17379999,0.1991,-6.8939821,109.4149308,36.20000076293945,0.34550017,1.909,180.05154
1779702839627,-3.594,15.784951,-11.2560005,21.073011,-0.98175,-0.3625875,0.3991625,-6.8939821,109.4149308,36.20000076293945,0.34550017,1.909,180.05154
1779702839632,9.5460005,3.63,4.2510004,13.064426,-0.1698125,0.1183875,0.1139875,-6.8939821,109.4149308,36.20000076293945,0.34550017,1.909,180.05154
1779702839643,16.07295,-1.506,7.8769503,16.982946,-0.1698125,0.1183875,0.1139875,-6.8939821,109.4149308,36.20000076293945,0.34550017,1.909,180.05154
1779702839643,-1.6350001,9.559951,-2.02305,11.322592,0.06545,0.28655,-0.1159125,-6.8939821,109.4149308,36.20000076293945,0.34550017,1.909,180.05154
1779702839648,-6.7890005,12.817051,-3.6540003,14.230311,-0.29755,0.099275,0.0012375,-6.8939821,109.4149308,36.20000076293945,0.34550017,1.909,180.05154
1779702839652,-5.71605,10.9150505,2.6460001,12.927741,-0.29755,0.099275,0.0012375,-6.8939821,109.4149308,36.20000076293945,0.34550017,1.909,180.05154
1779702839657,-8.50605,10.144051,12.9210005,17.384615,-0.2688125,0.3014,0.18535,-6.8939821,109.4149308,36.20000076293945,0.34550017,1.909,180.05154
1779702839661,4.10295,6.0990005,8.028001,12.1848345,-0.1304875,-0.521125,0.323675,-6.8939821,109.4149308,36.20000076293945,0.34550017,1.909,180.05154
1779702839667,16.74105,3.6540003,16.264051,21.336853,0.4602125,0.3546125,-0.4756125,-6.8939821,109.4149308,36.20000076293945,0.34550017,1.909,180.05154
1779702839677,-4.85895,2.66505,7.7809505,11.909573,0.4602125,0.3546125,-0.4756125,-6.8939821,109.4149308,36.20000076293945,0.34550017,1.909,180.05154
1779702839678,-6.5659504,16.198952,9.040951,18.124983,0.4602125,0.3546125,-0.4756125,-6.8939821,109.4149308,36.20000076293945,0.34550017,1.909,180.05154
1779702839684,-9.076051,20.02395,-10.06095,22.967072,0.1186625,-0.211475,0.44605,-6.8939821,109.4149308,36.20000076293945,0.34550017,1.909,180.05154
1779702839689,-0.60705,22.285051,-16.768951,26.910255,-0.5135625,-0.087037496,0.5652625,-6.8939821,109.4149308,36.20000076293945,0.34550017,1.909,180.05154
1779702839692,16.305,8.025001,-4.7389503,20.406538,-0.62425,-0.1764125,0.0257125,-6.8939821,109.4149308,36.20000076293945,0.34550017,1.909,180.05154
1779702839698,15.984001,5.1199503,10.497001,19.918262,0.20899999,0.5218125,-0.298925,-6.8939821,109.4149308,36.20000076293945,0.34550017,1.909,180.05154
1779702839710,-1.386,6.7240505,12.207001,15.187786,0.3953125,0.41635,0.0374,-6.8939821,109.4149308,36.20000076293945,0.34550017,1.909,180.05154
1779702839710,-6.6259503,12.20205,6.84,15.420225,0.3953125,0.41635,0.0374,-6.8939821,109.4149308,36.20000076293945,0.34550017,1.909,180.05154
1779702839713,-8.929951,12.606001,4.668,15.994705,0.1568875,-0.4115375,0.1406625,-6.8939821,109.4149308,36.20000076293945,0.34550017,1.909,180.05154
1779702839720,-8.47995,12.82005,-1.2210001,15.534363,-0.16335,0.0056375,0.632225,-6.8939821,109.4149308,36.20000076293945,0.34550017,1.909,180.05154
1779702839725,11.74005,1.7310001,1.8580501,12.716118,-0.1431375,-0.1656875,-0.070125,-6.8939821,109.4149308,36.20000076293945,0.34550017,1.909,180.05154
1779702839727,11.973001,-0.34305,6.3630004,13.393719,-0.1431375,-0.1656875,-0.070125,-6.8939821,109.4149308,36.20000076293945,0.34550017,1.909,180.05154
1779702839732,-7.4140506,7.24905,11.95995,15.341946,0.266475,0.5025625,-0.2935625,-6.8939821,109.4149308,36.20000076293945,0.34550017,1.909,180.05154
1779702839745,-11.337001,17.542952,2.1019502,19.862692,-0.03575,-0.1764125,0.54285,-6.8939821,109.4149308,36.20000076293945,0.34550017,1.909,180.05154
1779702839745,-1.2900001,22.242,-16.398,26.10328,-0.03575,-0.1764125,0.54285,-6.8939821,109.4149308,36.20000076293945,0.34550017,1.909,180.05154
1779702839748,10.95495,13.894951,-19.555052,26.31823,-0.03575,-0.1764125,0.54285,-6.8939821,109.4149308,36.20000076293945,0.34550017,1.909,180.05154
1779702839755,23.167051,3.9889503,-7.7500505,25.065662,-0.5773625,-0.0752125,0.3513125,-6.8939821,109.4149308,36.20000076293945,0.34550017,1.909,180.05154
1779702839758,12.126,9.95505,-0.51705,17.5711,-0.5773625,-0.0752125,0.3513125,-6.8939821,109.4149308,36.20000076293945,0.34550017,1.909,180.05154
1779702839762,-8.394,19.084951,-13.45005,23.363224,0.5495875,0.28765,-0.495825,-6.8939821,109.4149308,36.20000076293945,0.34550017,1.909,180.05154
1779702839774,-5.05305,21.396002,-6.84,23.091902,-0.8254125,-0.16995,0.1725625,-6.8939821,109.4149308,36.20000076293945,0.34550017,1.909,180.05154
1779702839774,-3.9250503,9.981001,1.7670001,13.314078,-0.8254125,-0.16995,0.1725625,-6.8939821,109.4149308,36.20000076293945,0.34550017,1.909,180.05154
1779702839776,4.419,1.9920001,12.3820505,13.300434,-0.2261875,0.1258125,0.159775,-6.8939821,109.4149308,36.20000076293945,0.34550017,1.909,180.05154
1779702839781,6.9360003,-0.31905,6.7369504,10.399705,-0.2261875,0.1258125,0.159775,-6.8939821,109.4149308,36.20000076293945,0.34550017,1.909,180.05154
1779702839787,-8.940001,6.1710005,13.692,16.062233,-0.1208625,-0.1997875,-0.3234,-6.8939821,109.4149308,36.20000076293945,0.34550017,1.909,180.05154
1779702839798,-22.91205,6.73605,24.630001,30.658083,-0.1208625,-0.1997875,-0.3234,-6.8939821,109.4149308,36.20000076293945,0.34550017,1.909,180.05154
1779702839798,-7.2679505,8.022,20.247002,24.498833,0.7550125,-0.046475,0.77385,-6.8939821,109.4149308,36.20000076293945,0.34550017,1.909,180.05154
1779702839801,8.433001,7.7230506,-3.0270002,14.362917,0.808225,-0.5253875,0.454575,-6.8939821,109.4149308,36.20000076293945,0.34550017,1.909,180.05154
1779702839806,18.80595,8.710051,-17.44905,24.546505,0.0165,0.25575,0.31405,-6.8939821,109.4149308,36.20000076293945,0.34550017,1.909,180.05154
1779702839812,14.038951,8.595,1.7170501,18.149591,-0.1783375,0.362175,-0.4574625,-6.8939821,109.4149308,36.20000076293945,0.34550017,1.909,180.05154
1779702839816,-14.047951,11.244,4.4209504,18.452976,-0.1783375,0.362175,-0.4574625,-6.8939821,109.4149308,36.20000076293945,0.34550017,1.909,180.05154
1779702839831,-11.3230505,18.646952,2.2800002,21.23813,-0.6029375,-0.0188375,0.3587375,-6.8939821,109.4149308,36.20000076293945,0.34550017,1.909,180.05154
1779702839831,2.05995,15.327001,-19.27005,24.014187,-0.6029375,-0.0188375,0.3587375,-6.8939821,109.4149308,36.20000076293945,0.34550017,1.909,180.05154
1779702839831,13.792951,9.976951,-18.67605,25.018948,-0.6029375,-0.0188375,0.3587375,-6.8939821,109.4149308,36.20000076293945,0.34550017,1.909,180.05154
1779702839837,13.44795,2.56905,-4.9830003,16.659592,-0.59015,0.245025,-0.1978625,-6.8939821,109.4149308,36.20000076293945,0.34550017,1.909,180.05154
1779702839841,1.30005,10.326,17.476051,19.60418,-0.59015,0.245025,-0.1978625,-6.8939821,109.4149308,36.20000076293945,0.34550017,1.909,180.05154
1779702839846,-17.241001,10.1320505,11.734951,22.470137,0.0856625,-0.1678875,-0.1051875,-6.8939821,109.4149308,36.20000076293945,0.34550017,1.909,180.05154
1779702839851,-5.4889503,10.306951,6.057,15.017876,0.0856625,-0.1678875,-0.1051875,-6.8939821,109.4149308,36.20000076293945,0.34550017,1.909,180.05154
1779702839862,2.2080002,7.9960504,5.44395,10.941279,0.136675,-0.033825,0.4631,-6.8939821,109.4149308,36.20000076293945,0.34550017,1.909,180.05154
1779702839862,1.0390501,11.148001,-6.4129505,12.510535,0.136675,-0.033825,0.4631,-6.8939821,109.4149308,36.20000076293945,0.34550017,1.909,180.05154
1779702839866,13.045951,8.571,-4.25505,15.445414,-0.10175,0.0875875,0.0587125,-6.8939821,109.4149308,36.20000076293945,0.34550017,1.909,180.05154
1779702839871,4.191,8.15205,-3.8460002,11.041426,-0.1846625,0.45581248,-0.1370875,-6.8939821,109.4149308,36.20000076293945,0.34550017,1.909,180.05154
1779702839876,-8.37705,12.39795,7.2010503,15.492604,-0.1846625,0.45581248,-0.1370875,-6.8939821,109.4149308,36.20000076293945,0.34550017,1.909,180.05154
1779702839881,-7.24905,18.603,0.66495,19.07976,0.268675,-0.0039875,0.3757875,-6.8939821,109.4149308,36.20000076293945,0.34550017,1.909,180.05154
1779702839898,5.511,17.986052,-2.5810502,19.006075,-0.1123375,0.4866125,0.052249998,-6.8939821,109.4149308,36.20000076293945,0.34550017,1.909,180.05154
1779702839898,8.964001,7.04505,-5.4859505,13.923087,-0.1123375,0.4866125,0.052249998,-6.8939821,109.4149308,36.20000076293945,0.34550017,1.909,180.05154
1779702839898,17.733002,4.545,5.92995,18.17876,-0.1123375,0.4866125,0.052249998,-6.8939821,109.4149308,36.20000076293945,0.34550017,1.909,180.05154
1779702839901,-0.65295005,7.1790004,0.90705,9.4481325,0.381425,0.2897125,-0.657525,-6.8939821,109.4149308,36.20000076293945,0.34550017,1.909,180.05154
1779702839906,-16.306952,18.45,-5.50605,22.074944,0.381425,0.2897125,-0.657525,-6.8939821,109.4149308,36.20000076293945,0.34550017,1.909,180.05154
1779702839911,-6.6840005,16.55595,8.061001,20.086723,-0.2091375,0.2398,0.11825,-6.8939821,109.4149308,36.20000076293945,0.34550017,1.909,180.05154
1779702839917,-2.3059502,7.8570004,5.6929502,11.995697,-0.386925,0.0099,0.3257375,-6.8939821,109.4149308,36.20000076293945,0.34550017,1.909,180.05154
1779702839930,15.678,-2.42895,13.302001,18.962091,-0.6444625,-0.4488,0.50985,-6.8939821,109.4149308,36.20000076293945,0.34550017,1.909,180.05154
1779702839931,12.65505,-0.78105,11.692051,17.590143,0.3304125,0.214225,-0.4978875,-6.8939821,109.4149308,36.20000076293945,0.34550017,1.909,180.05154
1779702839932,-14.515051,10.654051,4.806,18.42667,0.48894998,0.44935,-0.3020875,-6.8939821,109.4149308,36.20000076293945,0.34550017,1.909,180.05154
1779702839938,-21.556952,22.824001,8.15205,29.634123,0.3964125,0.05775,0.2352625,-6.8939821,109.4149308,36.20000076293945,0.34550017,1.909,180.05154
1779702839941,-8.08695,15.745951,-0.37305,20.090958,-0.433675,-0.3839,0.846175,-6.8939821,109.4149308,36.20000076293945,0.34550017,1.909,180.05154
1779702839947,12.427951,1.6870501,8.21895,16.014225,-0.4857875,-0.1764125,0.6397875,-6.8939821,109.4149308,36.20000076293945,0.34550017,1.909,180.05154
1779702839952,21.45,-4.10295,14.650051,24.24088,-0.4857875,-0.1764125,0.6397875,-6.8939821,109.4149308,36.20000076293945,0.34550017,1.909,180.05154
1779702839968,7.8820505,7.7779503,7.9339504,15.746126,0.7943375,0.082225,-0.091437496,-6.8939821,109.4149308,36.20000076293945,0.34550017,1.909,180.05154
1779702839968,-16.098001,22.428001,-13.984051,27.906797,0.7943375,0.082225,-0.091437496,-6.8939821,109.4149308,36.20000076293945,0.34550017,1.909,180.05154
1779702839972,-10.639951,24.26505,-14.99505,29.936766,-0.6018375,-0.59455,0.551375,-6.8939821,109.4149308,36.20000076293945,0.34550017,1.909,180.05154
1779702839973,-0.10695001,14.649001,-11.74695,21.009375,-0.6018375,-0.59455,0.551375,-6.8939821,109.4149308,36.20000076293945,0.34550017,1.909,180.05154
1779702839979,17.016,5.99595,-1.0360501,18.658854,-0.6018375,-0.59455,0.551375,-6.8939821,109.4149308,36.20000076293945,0.34550017,1.909,180.05154
1779702839982,24.292952,-2.8600502,5.214,23.73998,-0.0367125,-0.065725,-0.21807499,-6.8939821,109.4149308,36.20000076293945,0.34550017,1.909,180.05154
1779702839998,5.9040003,4.13805,-5.2780504,11.896187,-0.2825625,-0.3051125,0.307725,-6.8939821,109.4149308,36.20000076293945,0.34550017,1.909,180.05154
1779702839998,-14.302051,16.041,-1.9470001,19.642435,-0.2825625,-0.3051125,0.307725,-6.8939821,109.4149308,36.20000076293945,0.34550017,1.909,180.05154
1779702839998,-20.220001,16.612951,-8.70495,25.991886,-0.2825625,-0.3051125,0.307725,-6.8939821,109.4149308,36.20000076293945,0.34550017,1.909,180.05154
1779702840003,-0.24105,11.81595,-0.57195,14.664169,-0.2825625,-0.3051125,0.307725,-6.8939821,109.4149308,36.20000076293945,0.34550017,1.909,180.05154
1779702840014,13.26105,-3.5779502,13.207951,18.17713,-0.236775,0.556875,-0.216975,-6.8939821,109.4149308,36.20000076293945,0.34550017,1.909,180.05154
1779702840014,11.704051,-3.588,37.258953,35.0102,-0.236775,0.556875,-0.216975,-6.8939821,109.4149308,36.20000076293945,0.34550017,1.909,180.05154
1779702840020,-11.09805,-1.14705,37.35195,38.188198,0.7816875,0.2971375,-0.4255625,-6.8939821,109.4149308,36.20000076293945,0.34550017,1.909,180.05154
1779702840027,-21.291,15.231001,21.43305,34.703968,1.675575,0.1524875,0.2981,-6.8939821,109.4149308,36.20000076293945,0.34550017,1.909,180.05154
1779702840028,-10.762051,23.371952,-13.813951,30.304289,1.7139375,-0.2732125,0.7269625,-6.8939821,109.4149308,36.20000076293945,0.34550017,1.909,180.05154
1779702840032,9.970051,17.341051,-45.382954,45.737366,1.7139375,-0.2732125,0.7269625,-6.8939821,109.4149308,36.20000076293945,0.34550017,1.909,180.05154
1779702840045,28.311,6.7050004,-23.04405,38.839203,-0.4890875,0.6078875,-0.280775,-6.8939821,109.4149308,36.20000076293945,0.34550017,1.909,180.05154
1779702840046,14.122951,-0.83100003,1.7820001,19.175175,-0.4890875,0.6078875,-0.280775,-6.8939821,109.4149308,36.20000076293945,0.34550017,1.909,180.05154
1779702840048,-2.60505,6.6550503,12.04905,15.0423355,-0.4890875,0.6078875,-0.280775,-6.8939821,109.4149308,36.20000076293945,0.34550017,1.909,180.05154
1779702840052,-4.2169504,16.40205,-6.4870505,17.516766,0.3240875,0.4142875,-0.11165,-6.8939821,109.4149308,36.20000076293945,0.34550017,1.909,180.05154
1779702840058,-2.8609502,20.449951,-15.1050005,23.97064,0.8380625,0.18865,0.0374,-6.8939821,109.4149308,36.20000076293945,0.34550017,1.909,180.05154
1779702840062,-0.60300004,9.864,-2.016,12.862886,-0.9317,-0.097625,0.21835,-6.8939821,109.4149308,36.20000076293945,0.34550017,1.909,180.05154
1779702840067,10.099951,-5.097,14.638051,17.372814,-0.778525,0.02585,0.1458875,-6.8939821,109.4149308,36.20000076293945,0.34550017,1.909,180.05154
1779702840078,-0.025050001,2.052,17.470951,17.547413,0.4197875,-0.210375,0.1469875,-6.8939821,109.4149308,36.20000076293945,0.34550017,1.909,180.05154
1779702840078,-12.847951,16.635,-5.50995,20.892744,0.4197875,-0.210375,0.1469875,-6.8939821,109.4149308,36.20000076293945,0.34550017,1.909,180.05154
1779702840084,-2.526,21.41805,-1.07505,21.453165,-0.3751,0.2387,0.389675,-6.8939821,109.4149308,36.20000076293945,0.34550017,1.909,180.05154
1779702840091,-0.86100006,11.90505,9.010051,16.254648,-0.49115,-0.1582625,0.41195,-6.8939821,109.4149308,36.20000076293945,0.34550017,1.909,180.05154
1779702840094,12.763051,0.75600004,13.783051,18.29092,-0.0452375,0.0375375,0.452375,-6.8939821,109.4149308,36.20000076293945,0.34550017,1.909,180.05154
1779702840098,13.623001,3.6850502,-1.5820501,15.018991,-0.0452375,0.0375375,0.452375,-6.8939821,109.4149308,36.20000076293945,0.34550017,1.909,180.05154
1779702840104,-6.1849504,15.909,-24.35205,26.794516,0.4943125,0.4376625,-0.2116125,-6.8939821,109.4149308,36.20000076293945,0.34550017,1.909,180.05154
1779702840108,-13.42605,22.986002,-20.20605,32.09494,0.4943125,0.4376625,-0.2116125,-6.8939821,109.4149308,36.20000076293945,0.34550017,1.909,180.05154
1779702840114,-5.9989505,17.763,-7.70205,22.634205,-0.434775,0.1513875,0.157575,-6.8939821,109.4149308,36.20000076293945,0.34550017,1.909,180.05154
1779702840118,15.58905,1.5409501,10.068001,19.423985,-1.1158125,-0.210375,0.764225,-6.8939821,109.4149308,36.20000076293945,0.34550017,1.909,180.05154
1779702840131,26.719051,-8.656051,15.579,29.578876,-1.0978,0.0077,0.7110125,-6.8939821,109.4149308,36.20000076293945,0.34550017,1.909,180.05154
1779702840131,11.314051,-2.3500502,13.246051,19.978226,0.5251125,1.0762125,-0.804375,-6.8939821,109.4149308,36.20000076293945,0.34550017,1.909,180.05154
1779702840134,-24.871052,14.628,7.4359503,27.832973,0.5251125,1.0762125,-0.804375,-6.8939821,109.4149308,36.20000076293945,0.34550017,1.909,180.05154
1779702840138,-32.658,25.602001,1.06095,38.775105,0.17613749,0.0386375,0.338525,-6.8939821,109.4149308,36.20000076293945,0.34550017,1.909,180.05154
1779702840144,-14.938951,18.01395,-1.08,26.496906,-0.5082,-0.521125,1.0516,-6.8939821,109.4149308,36.20000076293945,0.34550017,1.909,180.05154
1779702840149,18.226051,0.03705,3.6540003,20.170391,-0.5082,-0.521125,1.0516,-6.8939821,109.4149308,36.20000076293945,0.34550017,1.909,180.05154
1779702840156,30.739952,-6.3679504,25.303051,36.290447,-1.0338625,-0.6021125,1.043075,-6.8939821,109.4149308,36.20000076293945,0.34550017,1.909,180.05154
1779702840169,3.4369502,2.72895,20.476952,24.01165,0.0356125,0.77935,0.1566125,-6.8939821,109.4149308,36.20000076293945,0.34550017,1.909,180.05154
1779702840169,-14.158051,22.270052,0.64905006,25.920313,1.216875,0.6303,-0.0061875,-6.8939821,109.4149308,36.20000076293945,0.34550017,1.909,180.05154
1779702840173,-14.42895,23.034,-15.505051,30.217371,-0.5093,-0.5031125,0.503525,-6.8939821,109.4149308,36.20000076293945,0.34550017,1.909,180.05154
1779702840177,-2.12805,12.211051,-14.956051,21.583294,-1.022175,0.049225,0.748275,-6.8939821,109.4149308,36.20000076293945,0.34550017,1.909,180.05154
1779702840182,17.77605,-4.8619504,9.87405,21.042656,-0.191125,0.18755,-0.0402875,-6.8939821,109.4149308,36.20000076293945,0.34550017,1.909,180.05154
1779702840188,9.73095,-4.0999503,16.470001,19.859974,0.496375,0.42061248,-0.1797125,-6.8939821,109.4149308,36.20000076293945,0.34550017,1.909,180.05154
1779702840201,-7.2559505,11.778001,13.500001,19.4354,0.6315375,-0.1029875,0.57805,-6.8939821,109.4149308,36.20000076293945,0.34550017,1.909,180.05154
1779702840201,-9.33495,20.629951,-3.20895,22.183022,0.6315375,-0.1029875,0.57805,-6.8939821,109.4149308,36.20000076293945,0.34550017,1.909,180.05154
1779702840201,3.624,20.43795,-24.92205,30.383652,0.6315375,-0.1029875,0.57805,-6.8939821,109.4149308,36.20000076293945,0.34550017,1.909,180.05154
1779702840206,17.70405,9.4810505,-27.067951,33.040382,-0.2805,-0.112475,0.519475,-6.8939821,109.4149308,36.20000076293945,0.34550017,1.909,180.05154
1779702840211,19.287,6.2310004,-0.63195,22.83079,-0.3496625,0.865425,-0.3020875,-6.8939821,109.4149308,36.20000076293945,0.34550017,1.909,180.05154
1779702840217,-1.6350001,4.7719502,12.573001,15.403872,0.3059375,0.0556875,-0.083875,-6.8939821,109.4149308,36.20000076293945,0.34550017,1.909,180.05154
1779702840231,-4.938,16.896,3.7690501,17.482204,-1.1946,0.312125,0.297,-6.8939821,109.4149308,36.20000076293945,0.34550017,1.909,180.05154
1779702840231,1.69605,16.893002,-9.043051,18.885307,-1.1946,0.312125,0.297,-6.8939821,109.4149308,36.20000076293945,0.34550017,1.909,180.05154
1779702840232,-3.5719502,12.781051,-10.818001,17.474205,-1.1946,0.312125,0.297,-6.8939821,109.4149308,36.20000076293945,0.34550017,1.909,180.05154
1779702840237,2.3830502,3.0360003,17.500051,17.831326,-1.1946,0.312125,0.297,-6.8939821,109.4149308,36.20000076293945,0.34550017,1.909,180.05154
1779702840241,-4.3819504,-3.0010502,19.82295,19.983957,-0.2123,0.2481875,-0.14245,-6.8939821,109.4149308,36.20000076293945,0.34550017,1.909,180.05154
1779702840247,-8.688001,1.28505,7.5460505,13.260074,0.0845625,-0.00935,0.0086624995,-6.8939821,109.4149308,36.20000076293945,0.34550017,1.909,180.05154
1779702840253,-3.6490502,5.32305,11.533951,13.225414,0.432575,0.048125,0.2066625,-6.8939821,109.4149308,36.20000076293945,0.34550017,1.909,180.05154
1779702840267,-6.9930005,12.1369505,-0.59595,13.861151,-0.3177625,0.7154125,-0.28187498,-6.8939821,109.4149308,36.20000076293945,0.34550017,1.909,180.05154
1779702840268,11.34,8.17305,-12.51105,17.77987,-0.3177625,0.7154125,-0.28187498,-6.8939821,109.4149308,36.20000076293945,0.34550017,1.909,180.05154
1779702840268,18.585001,6.2380505,-10.35795,21.293665,-0.3177625,0.7154125,-0.28187498,-6.8939821,109.4149308,36.20000076293945,0.34550017,1.909,180.05154
1779702840273,-1.0669501,11.269951,5.46705,14.315813,-0.0495,0.163075,-0.1254,-6.8939821,109.4149308,36.20000076293945,0.34550017,1.909,180.05154
1779702840278,-11.113951,19.73895,12.250051,23.465452,-0.0495,0.163075,-0.1254,-6.8939821,109.4149308,36.20000076293945,0.34550017,1.909,180.05154
1779702840282,2.8879502,19.327051,-2.07795,20.414526,0.072875,0.3482875,0.389675,-6.8939821,109.4149308,36.20000076293945,0.34550017,1.909,180.05154
1779702840289,10.9140005,14.48595,-8.776951,20.20232,-0.22825,0.051425,0.0991375,-6.8939821,109.4149308,36.20000076293945,0.34550017,1.909,180.05154
1779702840303,11.268001,13.509001,-7.2709503,19.268389,-0.6263125,0.1439625,-0.642675,-6.8939821,109.4149308,36.20000076293945,0.34550017,1.909,180.05154
1779702840303,7.3050003,11.590951,-6.2860503,15.912934,-0.6263125,0.1439625,-0.642675,-6.8939821,109.4149308,36.20000076293945,0.34550017,1.909,180.05154
1779702840307,-14.10795,16.632,0.76095,20.640865,-0.8870125,0.2908125,0.1012,-6.8939821,109.4149308,36.20000076293945,0.34550017,1.909,180.05154
1779702840308,-16.731,13.753951,27.56895,32.1755,-0.8870125,0.2908125,0.1012,-6.8939821,109.4149308,36.20000076293945,0.34550017,1.909,180.05154
1779702840313,-1.125,2.3389502,32.70105,32.678207,0.16115,-0.2168375,0.5333625,-6.8939821,109.4149308,36.20000076293945,0.34550017,1.909,180.05154
1779702840318,16.353,-5.2330503,16.233002,25.43861,0.55495,0.58134997,0.0385,-6.8939821,109.4149308,36.20000076293945,0.34550017,1.909,180.05154
1779702840331,14.86095,-1.4970001,14.286,21.622364,0.55495,0.58134997,0.0385,-6.8939821,109.4149308,36.20000076293945,0.34550017,1.909,180.05154
1779702840332,-18.477001,9.996,3.1230001,21.31525,0.8369625,0.669625,-0.574475,-6.8939821,109.4149308,36.20000076293945,0.34550017,1.909,180.05154
1779702840333,-29.077051,23.08905,10.641001,35.162216,0.5006375,-0.1582625,0.73974997,-6.8939821,109.4149308,36.20000076293945,0.34550017,1.909,180.05154
1779702840337,-14.476951,20.545952,1.8270001,27.192701,0.5006375,-0.1582625,0.73974997,-6.8939821,109.4149308,36.20000076293945,0.34550017,1.909,180.05154
1779702840343,22.507952,7.0930505,-12.786,26.91077,-0.270875,0.108899996,0.85153747,-6.8939821,109.4149308,36.20000076293945,0.34550017,1.909,180.05154
1779702840348,41.395054,-2.14395,-0.66495,38.546852,-0.270875,0.108899996,0.85153747,-6.8939821,109.4149308,36.20000076293945,0.34550017,1.909,180.05154
1779702840354,19.993952,6.69495,1.2859501,24.608776,0.6485875,0.8314625,-0.381975,-6.8939821,109.4149308,36.20000076293945,0.34550017,1.909,180.05154
1779702840367,-13.933051,24.955051,-12.849001,29.99102,-0.6529875,-0.064625,0.54285,-6.8939821,109.4149308,36.20000076293945,0.34550017,1.909,180.05154
1779702840367,-23.716951,32.04195,-14.307001,39.881493,-0.6529875,-0.064625,0.54285,-6.8939821,109.4149308,36.20000076293945,0.34550017,1.909,180.05154
1779702840374,-9.77595,17.029951,-3.213,23.894325,-0.8380625,-0.3295875,0.553575,-6.8939821,109.4149308,36.20000076293945,0.34550017,1.909,180.05154
1779702840375,19.066952,-4.8910503,9.934051,22.41803,-0.8380625,-0.3295875,0.553575,-6.8939821,109.4149308,36.20000076293945,0.34550017,1.909,180.05154
1779702840376,23.983952,-8.071051,24.778051,32.81675,-0.8380625,-0.3295875,0.553575,-6.8939821,109.4149308,36.20000076293945,0.34550017,1.909,180.05154
1779702840381,-8.67405,3.66105,20.934002,24.926355,0.7880125,0.25245,-0.803275,-6.8939821,109.4149308,36.20000076293945,0.34550017,1.909,180.05154
1779702840387,-20.497952,22.042952,12.9210005,31.190737,0.9966,0.460075,0.076725,-6.8939821,109.4149308,36.20000076293945,0.34550017,1.909,180.05154
1779702840402,-15.1050005,16.992,1.9080001,24.490244,0.3113,0.1747625,0.454575,-6.8939821,109.4149308,36.20000076293945,0.34550017,1.909,180.05154
1779702840403,-1.70895,7.1410503,1.1179501,10.839896,0.3113,0.1747625,0.454575,-6.8939821,109.4149308,36.20000076293945,0.34550017,1.909,180.05154
1779702840403,22.932001,-4.47405,16.081951,24.859268,0.3113,0.1747625,0.454575,-6.8939821,109.4149308,36.20000076293945,0.34550017,1.909,180.05154
1779702840406,12.283951,1.2540001,5.02395,15.636429,1.4202375,0.2695,-0.45319998,-6.8939821,109.4149308,36.20000076293945,0.34550017,1.909,180.05154
1779702840411,-3.5029502,21.231,-14.161051,23.735033,1.4202375,0.2695,-0.45319998,-6.8939821,109.4149308,36.20000076293945,0.34550017,1.909,180.05154
1779702840416,-5.4529505,24.201,-12.69795,27.04192,0.12925,0.2811875,0.08415,-6.8939821,109.4149308,36.20000076293945,0.34550017,1.909,180.05154
1779702840423,-3.8260503,17.787,-7.932,21.286575,-0.2825625,-0.2168375,0.45993748,-6.8939821,109.4149308,36.20000076293945,0.34550017,1.909,180.05154
1779702840435,17.172,3.82905,-2.3110502,18.453207,0.1824625,0.39833748,-0.495825,-6.8939821,109.4149308,36.20000076293945,0.34550017,1.909,180.05154
1779702840435,20.26695,-0.19395001,0.14295001,19.905348,0.1824625,0.39833748,-0.495825,-6.8939821,109.4149308,36.20000076293945,0.34550017,1.909,180.05154
1779702840435,-4.66905,7.7059503,6.7219505,12.974092,0.1824625,0.39833748,-0.495825,-6.8939821,109.4149308,36.20000076293945,0.34550017,1.909,180.05154
1779702840442,-19.425001,12.640051,13.972051,24.243944,0.4357375,0.230175,-0.071225,-6.8939821,109.4149308,36.20000076293945,0.34550017,1.909,180.05154
1779702840446,-11.60295,16.108051,1.9080001,20.80349,0.875325,-0.0422125,0.51205,-6.8939821,109.4149308,36.20000076293945,0.34550017,1.909,180.05154
1779702840453,8.13795,7.1070004,-18.733051,21.461111,0.875325,-0.0422125,0.51205,-6.8939821,109.4149308,36.20000076293945,0.34550017,1.909,180.05154
1779702840465,20.094002,0.01305,-12.937051,23.41099,0.251625,0.754875,-0.528825,-6.8939821,109.4149308,36.20000076293945,0.34550017,1.909,180.05154
1779702840465,5.655,-0.726,3.6690001,10.106155,0.251625,0.754875,-0.528825,-6.8939821,109.4149308,36.20000076293945,0.34550017,1.909,180.05154
1779702840466,-13.320001,13.416,2.6530502,17.293694,0.251625,0.754875,-0.528825,-6.8939821,109.4149308,36.20000076293945,0.34550017,1.909,180.05154
1779702840471,-6.8230505,21.36495,-2.8180501,21.542217,0.450725,0.051425,0.47905,-6.8939821,109.4149308,36.20000076293945,0.34550017,1.909,180.05154
1779702840477,6.91905,14.7619505,-14.559001,21.79449,0.450725,0.051425,0.47905,-6.8939821,109.4149308,36.20000076293945,0.34550017,1.909,180.05154
1779702840481,19.82805,7.8469505,-7.2010503,22.364788,-0.6923125,0.099275,0.1651375,-6.8939821,109.4149308,36.20000076293945,0.34550017,1.909,180.05154
1779702840486,12.598051,3.8550003,5.7049503,15.958416,0.2102375,0.6441875,-0.5479375,-6.8939821,109.4149308,36.20000076293945,0.34550017,1.909,180.05154
1779702840494,-10.00605,14.280001,-2.2669501,17.258463,0.2102375,0.6441875,-0.5479375,-6.8939821,109.4149308,36.20000076293945,0.34550017,1.909,180.05154
1779702840497,-8.88,23.094002,-12.013051,25.45534,0.5102625,0.2993375,0.3003,-6.8939821,109.4149308,36.20000076293945,0.34550017,1.909,180.05154
1779702840501,2.5789502,20.136002,-23.011051,29.639704,-0.4112625,-0.0922625,0.31295,-6.8939821,109.4149308,36.20000076293945,0.34550017,1.909,180.05154
1779702840506,14.545051,9.76095,-15.246,24.50578,-1.4829375,0.2088625,0.28105,-6.8939821,109.4149308,36.20000076293945,0.34550017,1.909,180.05154
1779702840512,18.72195,-5.0269504,14.81805,24.421097,-1.4829375,0.2088625,0.28105,-6.8939821,109.4149308,36.20000076293945,0.34550017,1.909,180.05154
1779702840516,-3.2440503,-5.1589503,22.494001,23.528147,-1.0998625,0.573925,-0.3883,-6.8939821,109.4149308,36.20000076293945,0.34550017,1.909,180.05154
1779702840523,-20.39505,12.71895,15.780001,27.708075,0.0367125,0.48235,-0.814,-6.8939821,109.4149308,36.20000076293945,0.34550017,1.909,180.05154
1779702840526,-20.445002,20.17695,2.95005,28.642233,0.68694997,0.411125,-0.3755125,-6.8939821,109.4149308,36.20000076293945,0.34550017,1.909,180.05154
1779702840532,-5.4529505,6.1519504,7.9270506,14.864548,-0.1144,-0.0699875,0.2118875,-6.8939821,109.4149308,36.20000076293945,0.34550017,1.909,180.05154
1779702840536,14.914051,-10.858951,30.840002,31.722328,-1.1829125,-0.161425,0.58547497,-6.8939821,109.4149308,36.20000076293945,0.34550017,1.909,180.05154
1779702840548,7.45305,-7.3360505,34.093052,34.873207,-0.677325,0.02475,0.2226125,-6.8939821,109.4149308,36.20000076293945,0.34550017,1.909,180.05154
1779702840549,-12.661951,16.29495,9.4789505,25.141882,1.70005,0.28655,-0.2553375,-6.8939821,109.4149308,36.20000076293945,0.34550017,1.909,180.05154
1779702840552,-8.875051,28.416002,-18.906,33.24097,0.9051625,0.0768625,0.389675,-6.8939821,109.4149308,36.20000076293945,0.34550017,1.909,180.05154
1779702840557,2.9599502,22.845001,-24.565052,33.589283,0.9051625,0.0768625,0.389675,-6.8939821,109.4149308,36.20000076293945,0.34550017,1.909,180.05154
1779702840562,15.321001,8.82195,-17.500051,26.618597,-0.7486875,-0.2094125,0.44715,-6.8939821,109.4149308,36.20000076293945,0.34550017,1.909,180.05154
1779702840572,26.500952,5.46705,-4.56405,27.276682,0.1101375,0.1727,-0.748,-6.8939821,109.4149308,36.20000076293945,0.34550017,1.909,180.05154
1779702840572,7.2900004,12.352051,-13.29195,21.099237,0.1101375,0.1727,-0.748,-6.8939821,109.4149308,36.20000076293945,0.34550017,1.909,180.05154
1779702840578,-7.5390005,21.961052,-16.966051,27.225533,0.1101375,0.1727,-0.748,-6.8939821,109.4149308,36.20000076293945,0.34550017,1.909,180.05154
1779702840584,-6.1470003,17.41995,-0.68700004,20.233475,-0.7646375,0.0716375,-0.0732875,-6.8939821,109.4149308,36.20000076293945,0.34550017,1.909,180.05154
1779702840588,0.43095002,6.8100004,-4.13595,10.430069,-0.9604375,-0.0039875,0.2875125,-6.8939821,109.4149308,36.20000076293945,0.34550017,1.909,180.05154
1779702840595,16.890001,-0.90495,12.328951,18.830572,-0.743325,0.263175,-0.19139999,-6.8939821,109.4149308,36.20000076293945,0.34550017,1.909,180.05154
1779702840598,-0.42795002,-1.36995,21.03705,20.634878,-0.743325,0.263175,-0.19139999,-6.8939821,109.4149308,36.20000076293945,0.34550017,1.909,180.05154
1779702840603,-17.083052,7.4020505,34.332,35.37112,0.0026125,0.5856125,-0.2030875,-6.8939821,109.4149308,36.20000076293945,0.34550017,1.909,180.05154
1779702840612,-15.77805,9.306001,27.715052,33.651478,0.6241125,-0.0699875,0.12045,-6.8939821,109.4149308,36.20000076293945,0.34550017,1.909,180.05154
