timestamp,ax,ay,az,magnitude,gx,gy,gz,lat,lon,alt,speed,accuracy,bearing
1776413557076,0.606,10.318951,2.09295,10.456476,-0.00385,-0.016775,-4.125E-4,-6.8348623,109.4553693,30.799999999999997,3.1714401,1.926,67.33835
1776413557076,3.279,7.7230506,3.58695,9.391205,-0.00385,-0.016775,-4.125E-4,-6.8348623,109.4553693,30.799999999999997,3.1714401,1.926,67.33835
1776413557079,0.9580501,9.77505,3.17805,10.13684,-0.061325,0.0364375,0.0793375,-6.8348623,109.4553693,30.799999999999997,3.1714401,1.926,67.33835
1776413557090,-1.5460501,11.428051,-0.109950006,11.253513,0.0771375,0.0364375,-0.0771375,-6.8348623,109.4553693,30.799999999999997,3.1714401,1.926,67.33835
1776413663486,-0.933,10.309951,1.3960501,8.356632,,,,-6.8348661,109.4553644,31.299999999999997,0.00244016,1.955,0.0
1776413663487,-0.15195,8.96805,4.2319503,9.605391,,,,-6.8348661,109.4553644,31.299999999999997,0.00244016,1.955,0.0
1776413663487,2.3760002,8.394,2.38695,9.156641,,,,-6.8348661,109.4553644,31.299999999999997,0.00244016,1.955,0.0
1776413663487,-0.31305,9.732,4.50705,10.414972,,,,-6.8348661,109.4553644,31.299999999999997,0.00244016,1.955,0.0
1776413663487,1.12605,10.401,1.00605,10.491026,,,,-6.8348661,109.4553644,31.299999999999997,0.00244016,1.955,0.0
1776413663518,0.28995,10.065001,0.43995002,10.161232,,,,-6.8348661,109.4553644,31.299999999999997,0.00244016,1.955,0.0
1776413663523,-1.6560001,8.580001,7.7380505,11.369867,0.0776875,0.0276375,-0.0906125,-6.8348661,109.4553644,31.299999999999997,0.00244016,1.955,0.0
1776413663533,2.50005,9.60105,0.09105001,10.211277,-0.1288375,0.0457875,-0.081125,-6.8348661,109.4553644,31.299999999999997,0.00244016,1.955,0.0
1776413663543,0.82605004,9.04695,3.9420002,9.964642,0.1755875,-0.08305,-0.0182875,-6.8348661,109.4553644,31.299999999999997,0.00244016,1.955,0.0
1776413663559,0.26595002,10.446,1.36695,10.423661,-0.0341,0.0457875,-0.0928125,-6.8348661,109.4553644,31.299999999999997,0.00244016,1.955,0.0
1776413663564,-0.47805002,9.220051,4.0470004,10.1491165,0.0862125,-0.0287375,-0.1269125,-6.8348661,109.4553644,31.299999999999997,0.00244016,1.955,0.0
1776413663581,1.485,9.747001,1.8960001,10.061922,-0.042625,0.0116875,-0.0704,-6.8348661,109.4553644,31.299999999999997,0.00244016,1.955,0.0
1776413663587,1.07505,9.02805,3.7410002,9.877508,0.0669625,-0.0554125,-0.073699996,-6.8348661,109.4553644,31.299999999999997,0.00244016,1.955,0.0
1776413663594,-0.231,10.173,0.43305,10.123369,-0.010725,0.0116875,-0.08965,-6.8348661,109.4553644,31.299999999999997,0.00244016,1.955,0.0
1776413663604,-0.82305,8.853001,5.6779504,10.464283,0.095699996,-0.008525,-0.113025,-6.8348661,109.4553644,31.299999999999997,0.00244016,1.955,0.0
1776413663614,2.8519502,9.009001,0.78495,9.678606,-0.0884125,0.0011,-0.0864875,-6.8348661,109.4553644,31.299999999999997,0.00244016,1.955,0.0
1776413663624,-0.351,9.706051,3.9439502,10.321819,0.1095875,-0.090475,-0.056649998,-6.8348661,109.4553644,31.299999999999997,0.00244016,1.955,0.0
1776413663634,-0.07095,10.302,2.0310001,10.46479,-0.0075625,0.0191125,-0.1375,-6.8348661,109.4553644,31.299999999999997,0.00244016,1.955,0.0
1776413663644,0.40500003,9.14295,3.7069502,9.992286,0.0446875,-0.066,-0.1395625,-6.8348661,109.4553644,31.299999999999997,0.00244016,1.955,0.0
1776413663654,1.41795,9.675,1.3620001,9.89666,-0.0033,-0.0309375,-0.078925,-6.8348661,109.4553644,31.299999999999997,0.00244016,1.955,0.0
1776413663666,-0.19995001,9.780001,3.4510503,10.277694,0.0595375,-0.0862125,-0.1087625,-6.8348661,109.4553644,31.299999999999997,0.00244016,1.955,0.0
1776413663675,0.35700002,9.198001,1.365,9.500006,-0.008525,-0.0446875,-0.1599125,-6.8348661,109.4553644,31.299999999999997,0.00244016,1.955,0.0
1776413663690,-1.005,9.385051,5.53695,10.65432,0.0424875,-0.0787875,-0.130075,-6.8348661,109.4553644,31.299999999999997,0.00244016,1.955,0.0
1776413663719,-0.75105006,10.54905,1.8919501,10.725784,-0.0341,0.023375,-0.2311375,-6.8348661,109.4553644,31.299999999999997,0.00244016,1.955,0.0
1776413663724,0.36195,8.853001,4.0399504,9.935524,-0.0341,0.023375,-0.2311375,-6.8348661,109.4553644,31.299999999999997,0.00244016,1.955,0.0
1776413663736,1.32,9.88605,2.0020502,10.125295,0.1500125,-0.2671625,-0.2822875,-6.8348661,109.4553644,31.299999999999997,0.00244016,1.955,0.0
1776413663862,0.112050004,9.61305,2.7199502,10.017913,-0.2267375,-0.50765,-0.4673625,-6.8348661,109.4553644,31.299999999999997,0.00244016,1.955,0.0
1776413663862,-1.2090001,9.843,2.874,10.263606,0.04895,-0.37565,-0.406725,-6.8348661,109.4553644,31.299999999999997,0.00244016,1.955,0.0
1776413663862,0.76095,8.940001,3.1750503,9.666755,0.04895,-0.37565,-0.406725,-6.8348661,109.4553644,31.299999999999997,0.00244016,1.955,0.0
1776413663862,1.7989501,9.42105,2.4450002,9.851752,0.04895,-0.37565,-0.406725,-6.8348661,109.4553644,31.299999999999997,0.00244016,1.955,0.0
1776413663862,-0.31500003,9.8880005,2.66505,10.166906,0.04895,-0.37565,-0.406725,-6.8348661,109.4553644,31.299999999999997,0.00244016,1.955,0.0
1776413663863,-1.005,10.386001,1.7740501,10.50078,0.04895,-0.37565,-0.406725,-6.8348661,109.4553644,31.299999999999997,0.00244016,1.955,0.0
1776413663863,1.07505,9.64095,2.56905,10.128254,-0.1128875,-0.63965,-0.627,-6.8348661,109.4553644,31.299999999999997,0.00244016,1.955,0.0
1776413663863,1.248,9.71805,1.3410001,9.937011,-0.1128875,-0.63965,-0.627,-6.8348661,109.4553644,31.299999999999997,0.00244016,1.955,0.0
1776413663864,-1.02705,10.804951,0.9580501,10.704086,-0.1128875,-0.63965,-0.627,-6.8348661,109.4553644,31.299999999999997,0.00244016,1.955,0.0
1776413663864,-0.39405003,9.547951,4.43295,10.56819,-0.1128875,-0.63965,-0.627,-6.8348661,109.4553644,31.299999999999997,0.00244016,1.955,0.0
1776413663864,2.4379501,9.682051,1.6020001,10.203221,-0.1128875,-0.63965,-0.627,-6.8348661,109.4553644,31.299999999999997,0.00244016,1.955,0.0
1776413663864,1.9369501,10.033951,1.2859501,10.280475,-0.1128875,-0.63965,-0.627,-6.8348661,109.4553644,31.299999999999997,0.00244016,1.955,0.0
1776413663866,-1.812,10.765051,3.3259501,11.18562,-0.1128875,-0.63965,-0.627,-6.8348661,109.4553644,31.299999999999997,0.00244016,1.955,0.0
1776413663876,-0.58605003,9.972,2.8980002,10.557996,-0.1192125,-0.8078125,-0.4588375,-6.8348661,109.4553644,31.299999999999997,0.00244016,1.955,0.0
1776413663891,2.8500001,8.949,2.15295,9.819977,0.1106875,-0.2660625,-0.3779875,-6.8348661,109.4553644,31.299999999999997,0.00244016,1.955,0.0
1776413663897,-1.6849501,10.174951,3.4800003,10.671843,-0.050049998,-0.7077125,-0.5578375,-6.8348661,109.4553644,31.299999999999997,0.00244016,1.955,0.0
1776413663907,-1.692,9.00405,3.0870001,9.868567,-0.0554125,-0.32999998,-0.1705,-6.8348661,109.4553644,31.299999999999997,0.00244016,1.955,0.0
1776413663917,0.13905,7.7089505,5.4580503,9.530965,0.1489125,-0.5022875,-0.506825,-6.8348661,109.4553644,31.299999999999997,0.00244016,1.955,0.0
1776413663926,0.76905006,9.39,1.9039501,9.595711,-0.190575,-0.5247,-0.5003625,-6.8348661,109.4553644,31.299999999999997,0.00244016,1.955,0.0
1776413663937,-0.16005,9.16005,2.3830502,9.492192,0.2660625,-0.2937,-0.180125,-6.8348661,109.4553644,31.299999999999997,0.00244016,1.955,0.0
1776413663957,-2.01105,10.18305,2.84295,10.5080595,-0.1021625,-0.3480125,-0.44825,-6.8348661,109.4553644,31.299999999999997,0.00244016,1.955,0.0
1776413663957,-0.15705001,9.670051,2.5930502,10.111944,-0.01815,-0.40865,-0.3642375,-6.8348661,109.4553644,31.299999999999997,0.00244016,1.955,0.0
1776413663967,2.01405,8.941951,1.1730001,9.414961,0.0829125,-0.223575,-0.1098625,-6.8348661,109.4553644,31.299999999999997,0.00244016,1.955,0.0
1776413663976,-3.6160502,9.316051,2.3080502,10.088033,-0.0650375,-0.231,-0.4747875,-6.8348661,109.4553644,31.299999999999997,0.00244016,1.955,0.0
1776413663988,-6.7909503,9.340051,7.8550506,13.190584,0.121275,-0.4321625,-0.0374,-6.8348661,109.4553644,31.299999999999997,0.00244016,1.955,0.0
1776413663997,2.7109501,8.00805,0.30900002,9.406211,0.27555,-0.2074875,0.1189375,-6.8348661,109.4553644,31.299999999999997,0.00244016,1.955,0.0
1776413664007,-0.50205004,8.434051,6.4129505,10.366946,0.251075,0.0350625,0.0317625,-6.8348661,109.4553644,31.299999999999997,0.00244016,1.955,0.0
1776413664017,-2.1760502,9.828,3.4840503,10.594925,0.17985,-0.2512125,-0.2215125,-6.8348661,109.4553644,31.299999999999997,0.00244016,1.955,0.0
1776413664027,0.31095,9.92595,0.35895002,10.068829,-0.0011,0.0308,0.1508375,-6.8348661,109.4553644,31.299999999999997,0.00244016,1.955,0.0
1776413664037,0.42600003,8.868,4.56195,9.999125,-0.041525,-0.056375,-0.2567125,-6.8348661,109.4553644,31.299999999999997,0.00244016,1.955,0.0
1776413664048,-1.0170001,10.10805,2.4190502,10.3543215,0.073425,-0.2000625,-0.1758625,-6.8348661,109.4553644,31.299999999999997,0.00244016,1.955,0.0
1776413664057,-1.6800001,10.408051,1.31895,10.570825,-0.363,-0.15015,-0.11935,-6.8348661,109.4553644,31.299999999999997,0.00244016,1.955,0.0
1776413664069,-1.6639501,7.3060503,7.9630504,10.861546,0.0521125,-0.2341625,-0.176825,-6.8348661,109.4553644,31.299999999999997,0.00244016,1.955,0.0
1776413664077,0.23505001,9.47595,1.9990501,9.922203,0.007425,-0.1692625,-0.22055,-6.8348661,109.4553644,31.299999999999997,0.00244016,1.955,0.0
1776413664087,-0.72,11.068951,0.00405,10.858315,0.25959998,-0.1106875,0.0199375,-6.8348661,109.4553644,31.299999999999997,0.00244016,1.955,0.0
1776413664102,-2.6940002,10.08195,4.62405,11.303067,-0.305525,-0.107525,-0.2162875,-6.8348661,109.4553644,31.299999999999997,0.00244016,1.955,0.0
1776413664107,0.33,8.67105,3.8389502,9.851495,0.1978625,-0.4203375,-0.1364,-6.8348661,109.4553644,31.299999999999997,0.00244016,1.955,0.0
1776413664121,1.12605,10.10595,1.1370001,10.155788,-0.0543125,0.01375,-0.02145,-6.8348661,109.4553644,31.299999999999997,0.00244016,1.955,0.0
1776413664128,-0.98595005,10.20405,1.33605,10.301771,0.1744875,-0.3331625,-0.260975,-6.8348661,109.4553644,31.299999999999997,0.00244016,1.955,0.0
1776413664138,-1.506,8.80095,3.7669501,9.813121,-0.3597,-0.18095,-0.2630375,-6.8348661,109.4553644,31.299999999999997,0.00244016,1.955,0.0
1776413664154,-0.58395004,7.8859506,4.5600004,9.265131,0.3436125,-0.3267,-0.02255,-6.8348661,109.4553644,31.299999999999997,0.00244016,1.955,0.0
1776413664159,0.73800004,10.044001,-0.058950003,9.910027,-0.0479875,-0.223575,-0.2875125,-6.8348661,109.4553644,31.299999999999997,0.00244016,1.955,0.0
1776413664168,-1.812,9.505051,2.1070502,9.904388,-0.0298375,-0.3576375,-0.3141875,-6.8348661,109.4553644,31.299999999999997,0.00244016,1.955,0.0
1776413664178,-2.4520502,9.67695,3.8839502,10.550256,0.0627,-0.48427498,-0.11935,-6.8348661,109.4553644,31.299999999999997,0.00244016,1.955,0.0
1776413664188,1.8060001,9.8230505,0.052050002,10.100312,-0.076725,-0.3469125,-0.2684,-6.8348661,109.4553644,31.299999999999997,0.00244016,1.955,0.0
1776413664199,-1.2060001,8.667001,6.15495,10.578745,-0.0372625,-0.297,-0.2248125,-6.8348661,109.4553644,31.299999999999997,0.00244016,1.955,0.0
1776413664208,-1.04805,10.518001,0.36795002,10.5769415,0.0999625,-0.21395,-0.1599125,-6.8348661,109.4553644,31.299999999999997,0.00244016,1.955,0.0
1776413664218,-1.6660501,9.330001,7.5610504,11.814678,-0.155375,-0.3873375,-0.242825,-6.8348661,109.4553644,31.299999999999997,0.00244016,1.955,0.0
1776413664229,2.89995,8.620951,-2.0400002,9.82021,0.1340625,-0.433125,-0.1258125,-6.8348661,109.4553644,31.299999999999997,0.00244016,1.955,0.0
1776413664239,-2.2770002,9.1699505,4.48995,10.332836,-0.0862125,-0.14905,-0.2481875,-6.8348661,109.4553644,31.299999999999997,0.00244016,1.955,0.0
1776413664250,-2.013,10.85295,1.84905,11.020054,0.070125,-0.5864375,-0.4334,-6.8348661,109.4553644,31.299999999999997,0.00244016,1.955,0.0
1776413664258,3.0559502,9.265051,1.9990501,10.170991,-0.2959,-0.4714875,-0.16733749,-6.8348661,109.4553644,31.299999999999997,0.00244016,1.955,0.0
1776413664270,1.4130001,8.338051,1.33095,8.883016,0.268125,-0.25547498,-0.1109625,-6.8348661,109.4553644,31.299999999999997,0.00244016,1.955,0.0
1776413664279,-6.8179502,13.35795,5.604,14.5847025,-0.2448875,-0.3012625,-0.6164125,-6.8348661,109.4553644,31.299999999999997,0.00244016,1.955,0.0
1776413664289,2.9190001,8.20005,1.6210501,9.999954,-0.0352,-0.825825,-0.08855,-6.8348661,109.4553644,31.299999999999997,0.00244016,1.955,0.0
1776413664299,3.9760501,5.7570004,3.3000002,8.1886015,-0.026675,-0.174625,-0.1480875,-6.8348661,109.4553644,31.299999999999997,0.00244016,1.955,0.0
1776413664309,-8.403001,11.29605,5.5729504,13.751023,0.2745875,-0.55233747,-0.67815,-6.8348661,109.4553644,31.299999999999997,0.00244016,1.955,0.0
1776413664320,0.45000002,11.104951,0.32805002,11.645329,-0.190575,-0.6194375,-0.2140875,-6.8348661,109.4553644,31.299999999999997,0.00244016,1.955,0.0
1776413664329,9.280951,5.0670004,2.4430501,11.01115,0.1436875,-0.3320625,-0.078925,-6.8348661,109.4553644,31.299999999999997,0.00244016,1.955,0.0
1776413664339,-8.109,13.047001,2.9929502,14.722623,0.37454998,-0.286275,-0.5759875,-6.8348661,109.4553644,31.299999999999997,0.00244016,1.955,0.0
1776413664354,-3.00495,12.393001,-1.16295,13.188544,-0.5278625,-0.34595,-0.0917125,-6.8348661,109.4553644,31.299999999999997,0.00244016,1.955,0.0
1776413664360,5.4889503,3.07905,8.33205,10.991187,0.064899996,-0.644875,-0.0715,-6.8348661,109.4553644,31.299999999999997,0.00244016,1.955,0.0
1776413664370,-2.97105,11.7630005,2.35905,12.085941,0.4096125,-0.2671625,-0.6175125,-6.8348661,109.4553644,31.299999999999997,0.00244016,1.955,0.0
1776413664380,-3.2710502,11.157001,2.7970502,11.983862,-0.269225,-0.612975,-0.6078875,-6.8348661,109.4553644,31.299999999999997,0.00244016,1.955,0.0
1776413664396,2.0380502,6.22095,3.1710002,8.215864,0.1276,-0.3650625,0.0721875,-6.8348661,109.4553644,31.299999999999997,0.00244016,1.955,0.0
1776413664399,-2.4130502,10.444051,4.524,10.95098,0.24585,-0.066,-0.3716625,-6.8348661,109.4553644,31.299999999999997,0.00244016,1.955,0.0
1776413664410,-0.07305,11.335051,-1.60905,11.349332,-0.28105,-0.44385,-0.6260375,-6.8348661,109.4553644,31.299999999999997,0.00244016,1.955,0.0
1776413664420,-0.88995004,7.53105,6.6600003,10.344095,0.0979,-0.9376125,-0.7046875,-6.8348661,109.4553644,31.299999999999997,0.00244016,1.955,0.0
1776413664430,-1.434,10.210951,1.6279501,10.419919,0.301125,0.0011,-0.2248125,-6.8348661,109.4553644,31.299999999999997,0.00244016,1.955,0.0
1776413664441,-3.00705,11.88105,1.815,11.995462,0.153175,-0.57145,0.0562375,-6.8348661,109.4553644,31.299999999999997,0.00244016,1.955,0.0
1776413664453,4.05,6.16905,0.34005,8.309101,-0.204325,-0.27775,-0.6089875,-6.8348661,109.4553644,31.299999999999997,0.00244016,1.955,0.0
1776413664460,-4.4490004,8.743051,4.74195,10.37854,0.2149125,-0.1288375,-0.147125,-6.8348661,109.4553644,31.299999999999997,0.00244016,1.955,0.0
1776413664471,-5.6779504,13.80105,1.8700501,14.107804,-0.0671,-0.2341625,-0.25355,-6.8348661,109.4553644,31.299999999999997,0.00244016,1.955,0.0
1776413664481,5.8890004,5.8240504,1.281,9.526346,0.155375,-0.4129125,0.0551375,-6.8348661,109.4553644,31.299999999999997,0.00244016,1.955,0.0
1776413664490,-1.5990001,9.34395,1.84395,9.63123,0.1351625,0.01375,-0.42267498,-6.8348661,109.4553644,31.299999999999997,0.00244016,1.955,0.0
1776413664502,-9.958051,13.52595,2.7280502,15.5393305,0.11495,-0.4778125,-0.1428625,-6.8348661,109.4553644,31.299999999999997,0.00244016,1.955,0.0
1776413664510,0.67800003,9.45705,3.8119502,11.283008,-0.1969,-0.174625,0.2520375,-6.8348661,109.4553644,31.299999999999997,0.00244016,1.955,0.0
1776413664521,8.91705,4.67205,-0.27705002,10.313146,0.2627625,0.267025,-0.2492875,-6.8348661,109.4553644,31.299999999999997,0.00244016,1.955,0.0
1776413664531,-10.68105,12.316951,2.04705,15.207544,-0.0309375,0.269225,-0.1332375,-6.8348661,109.4553644,31.299999999999997,0.00244016,1.955,0.0
1776413664541,-7.8210006,13.207951,5.5420504,16.097263,0.0105875,-0.11385,0.2509375,-6.8348661,109.4553644,31.299999999999997,0.00244016,1.955,0.0
1776413664554,12.77295,2.9899502,-1.302,13.765603,-0.14905,-0.3278,0.2668875,-6.8348661,109.4553644,31.299999999999997,0.00244016,1.955,0.0
1776413664561,-6.0490503,10.20405,3.1009502,12.561836,0.172425,0.692725,-0.291775,-6.8348661,109.4553644,31.299999999999997,0.00244016,1.955,0.0
1776413664571,-11.316001,16.588951,2.7160501,18.723417,-0.057475,-0.0053625,0.2179375,-6.8348661,109.4553644,31.299999999999997,0.00244016,1.955,0.0
1776413664582,10.284,5.7109504,-0.186,13.156513,-0.2608375,-0.467225,0.67347497,-6.8348661,109.4553644,31.299999999999997,0.00244016,1.955,0.0
1776413664591,3.3049502,5.39295,3.9829502,8.611029,0.20955,0.7555625,-0.5003625,-6.8348661,109.4553644,31.299999999999997,0.00244016,1.955,0.0
1776413664602,-15.849001,16.800001,3.3409503,20.391417,0.0840125,-0.0862125,0.1456125,-6.8348661,109.4553644,31.299999999999997,0.00244016,1.955,0.0
1776413664612,2.3830502,10.663951,-0.44205,12.827014,-0.2182125,-0.288475,0.8756,-6.8348661,109.4553644,31.299999999999997,0.00244016,1.955,0.0
1776413664622,16.45605,-0.19605,2.2009501,15.848395,0.04675,0.463925,-0.3685,-6.8348661,109.4553644,31.299999999999997,0.00244016,1.955,0.0
1776413664632,-16.98195,15.65295,3.82905,21.898277,0.318175,0.121275,-0.3205125,-6.8348661,109.4553644,31.299999999999997,0.00244016,1.955,0.0
1776413664642,-10.99005,17.562,-1.4479501,20.993898,0.056375,-0.042625,0.8320125,-6.8348661,109.4553644,31.299999999999997,0.00244016,1.955,0.0
1776413664654,23.814001,-2.32095,2.1379502,23.41651,-0.4321625,-0.15853749,0.1018875,-6.8348661,109.4553644,31.299999999999997,0.00244016,1.955,0.0
1776413664663,-7.4140506,10.67595,3.8410501,15.526113,0.5501375,0.5108125,-0.4035625,-6.8348661,109.4553644,31.299999999999997,0.00244016,1.955,0.0
1776413664673,-20.920052,22.330051,-0.246,27.584965,0.103125,0.25753748,0.3392125,-6.8348661,109.4553644,31.299999999999997,0.00244016,1.955,0.0
1776413664688,19.33695,0.25800002,2.5240502,21.119148,-0.612975,-0.5704875,0.6265875,-6.8348661,109.4553644,31.299999999999997,0.00244016,1.955,0.0
1776413664698,5.2189503,5.103,2.15505,10.312366,0.2171125,0.0999625,-0.5982625,-6.8348661,109.4553644,31.299999999999997,0.00244016,1.955,0.0
1776413664705,-21.094051,22.05705,-1.6180501,26.51279,0.24255,0.219175,0.328625,-6.8348661,109.4553644,31.299999999999997,0.00244016,1.955,0.0
1776413664714,8.28405,5.3179502,1.60695,13.282066,-0.01925,0.01595,0.0221375,-6.8348661,109.4553644,31.299999999999997,0.00244016,1.955,0.0
1776413664723,11.865001,2.12595,3.5389502,12.706594,0.303325,0.024475,-0.554675,-6.8348661,109.4553644,31.299999999999997,0.00244016,1.955,0.0
1776413664735,-14.215951,20.12895,-2.6479502,22.369051,0.31707498,0.3565375,-0.572825,-6.8348661,109.4553644,31.299999999999997,0.00244016,1.955,0.0
1776413664744,0.24405001,9.591001,-0.25800002,12.151869,-0.828025,-0.664125,0.5138375,-6.8348661,109.4553644,31.299999999999997,0.00244016,1.955,0.0
1776413664757,10.00395,1.1580001,7.36005,12.409243,0.4129125,0.3810125,0.27225,-6.8348661,109.4553644,31.299999999999997,0.00244016,1.955,0.0
1776413664764,-7.596,17.739,-0.045,17.919432,0.5086125,0.236225,-0.6281,-6.8348661,109.4553644,31.299999999999997,0.00244016,1.955,0.0
1776413664774,0.124050006,11.17695,-2.7870002,12.7997675,-0.7077125,-0.44165,0.2572625,-6.8348661,109.4553644,31.299999999999997,0.00244016,1.955,0.0
1776413664791,4.44,1.43805,6.4849505,8.9517565,0.3480125,0.2734875,0.3636875,-6.8348661,109.4553644,31.299999999999997,0.00244016,1.955,0.0
1776413664794,-7.8690004,15.83205,3.0559502,16.143917,0.45113748,0.1010625,-0.5993625,-6.8348661,109.4553644,31.299999999999997,0.00244016,1.955,0.0
1776413664805,4.407,11.93595,-4.866,14.126608,-0.3916,-0.5608625,0.27225,-6.8348661,109.4553644,31.299999999999997,0.00244016,1.955,0.0
1776413664814,6.3469505,2.69595,3.4129503,8.980653,0.1351625,0.318175,0.2211,-6.8348661,109.4553644,31.299999999999997,0.00244016,1.955,0.0
1776413664826,-11.43795,15.142951,3.9829502,17.308699,0.5086125,-0.318175,0.5435375,-6.8348661,109.4553644,31.299999999999997,0.00244016,1.955,0.0
1776413664834,2.019,13.488001,-3.4099503,14.708222,-0.4607625,-0.6194375,0.2679875,-6.8348661,109.4553644,31.299999999999997,0.00244016,1.955,0.0
1776413664844,12.03495,2.3820002,4.071,13.282616,0.220275,0.006325,0.319,-6.8348661,109.4553644,31.299999999999997,0.00244016,1.955,0.0
1776413664860,-7.3399506,14.78295,0.109950006,15.860706,0.6576625,0.1106875,-0.8239,-6.8348661,109.4553644,31.299999999999997,0.00244016,1.955,0.0
1776413664864,-4.0129504,14.45505,-4.2649503,15.649117,-0.3650625,-0.615175,-0.029975,-6.8348661,109.4553644,31.299999999999997,0.00244016,1.955,0.0
1776413664874,9.502951,2.8470001,4.00395,11.68807,-0.0031625,-0.2415875,-0.456775,-6.8348661,109.4553644,31.299999999999997,0.00244016,1.955,0.0
1776413664887,-1.2349501,11.50905,0.22995001,11.599535,0.6417125,0.1010625,-0.5973,-6.8348661,109.4553644,31.299999999999997,0.00244016,1.955,0.0
1776413664894,-3.8569503,12.717001,-3.7690501,13.370451,-0.2905375,-0.3639625,-0.390775,-6.8348661,109.4553644,31.299999999999997,0.00244016,1.955,0.0
1776413664906,2.12895,4.49895,4.7299504,8.167091,0.093637496,-0.17985,0.457325,-6.8348661,109.4553644,31.299999999999997,0.00244016,1.955,0.0
1776413664918,-0.84495,11.433001,0.651,10.819538,0.4874375,-0.0138875,-0.243925,-6.8348661,109.4553644,31.299999999999997,0.00244016,1.955,0.0
1776413664927,1.605,12.70005,-1.88205,12.514852,-0.320375,-0.2842125,-0.4195125,-6.8348661,109.4553644,31.299999999999997,0.00244016,1.955,0.0
1776413664941,1.28805,6.669,7.24905,10.45013,0.0999625,-0.0713625,-0.6015625,-6.8348661,109.4553644,31.299999999999997,0.00244016,1.955,0.0
1776413664947,-5.3590503,15.022951,-0.48105,14.855978,0.577775,-0.1340625,-0.056649998,-6.8348661,109.4553644,31.299999999999997,0.00244016,1.955,0.0
1776413664956,3.5040002,12.70695,-3.15405,13.813856,0.0265375,-0.041525,0.4797375,-6.8348661,109.4553644,31.299999999999997,0.00244016,1.955,0.0
1776413664965,6.6270003,4.4749503,3.8080502,9.848241,0.050049998,0.0020625,0.0551375,-6.8348661,109.4553644,31.299999999999997,0.00244016,1.955,0.0
1776413664975,-7.8520503,12.385951,1.4629501,13.759995,0.300025,0.005225,-0.0864875,-6.8348661,109.4553644,31.299999999999997,0.00244016,1.955,0.0
1776413664986,-1.7500501,11.622001,0.061950002,12.15455,-0.2734875,-0.27885,-0.3003,-6.8348661,109.4553644,31.299999999999997,0.00244016,1.955,0.0
1776413664995,9.70695,4.05405,3.8719501,11.398485,-0.0224125,-0.1106875,0.0572,-6.8348661,109.4553644,31.299999999999997,0.00244016,1.955,0.0
1776413665006,-2.8990502,10.09605,-1.815,10.807448,0.2586375,0.11275,-0.054449998,-6.8348661,109.4553644,31.299999999999997,0.00244016,1.955,0.0
1776413665018,-12.67605,13.465951,1.2,16.987501,-0.171325,0.0042625,-0.3322,-6.8348661,109.4553644,31.299999999999997,0.00244016,1.955,0.0
1776413665027,5.80095,7.7209506,-2.1720002,11.316357,-0.0862125,-0.2979625,0.163625,-6.8348661,109.4553644,31.299999999999997,0.00244016,1.955,0.0
1776413665038,4.8499503,8.36505,-1.7880001,10.129881,-0.12773749,0.0308,0.2264625,-6.8348661,109.4553644,31.299999999999997,0.00244016,1.955,0.0
1776413665055,-10.293,13.533001,2.4400501,15.767403,-0.041525,-0.402325,0.49995,-6.8348661,109.4553644,31.299999999999997,0.00244016,1.955,0.0
1776413665061,1.9609501,9.14295,3.4680002,11.132088,-0.041525,-0.402325,0.49995,-6.8348661,109.4553644,31.299999999999997,0.00244016,1.955,0.0
1776413665068,8.908951,6.74805,-1.22595,11.2209425,0.0510125,-0.2809125,0.228525,-6.8348661,109.4553644,31.299999999999997,0.00244016,1.955,0.0
1776413665078,-6.8149505,14.175001,-3.01005,15.055048,0.3064875,-0.0979,-0.3449875,-6.8348661,109.4553644,31.299999999999997,0.00244016,1.955,0.0
1776413665087,1.0350001,11.94495,-5.4960003,13.562494,-0.2512125,-0.467225,-0.522775,-6.8348661,109.4553644,31.299999999999997,0.00244016,1.955,0.0
1776413665097,5.7240005,5.9100003,0.34905002,9.300446,-0.27885,-0.4395875,-0.0193875,-6.8348661,109.4553644,31.299999999999997,0.00244016,1.955,0.0
1776413665110,-5.8170004,13.14,-0.34695002,13.359446,-0.4268,-0.57475,-0.0534875,-6.8348661,109.4553644,31.299999999999997,0.00244016,1.955,0.0
1776413665119,-4.1950502,9.342,8.121,13.127802,-0.6991875,-0.44275,-0.8622625,-6.8348661,109.4553644,31.299999999999997,0.00244016,1.955,0.0
1776413665127,2.421,7.7440505,8.63805,12.106403,0.3532375,-0.7865,-0.1513875,-6.8348661,109.4553644,31.299999999999997,0.00244016,1.955,0.0
1776413665138,0.735,12.85095,-3.0240002,12.999197,0.2553375,-0.223575,-0.0268125,-6.8348661,109.4553644,31.299999999999997,0.00244016,1.955,0.0
1776413665148,-1.1850001,11.29395,0.97695005,11.718154,-0.010725,-0.579975,-0.9994875,-6.8348661,109.4553644,31.299999999999997,0.00244016,1.955,0.0
1776413665159,-2.979,7.6530004,8.04705,11.541818,-0.0022,-0.5916625,-0.880275,-6.8348661,109.4553644,31.299999999999997,0.00244016,1.955,0.0
1776413665167,-7.0090504,10.125001,6.3780003,13.402761,0.6853,-0.6012875,0.2572625,-6.8348661,109.4553644,31.299999999999997,0.00244016,1.955,0.0
1776413665177,2.637,12.54195,-4.2510004,13.482783,0.072325,-0.513975,-0.4983,-6.8348661,109.4553644,31.299999999999997,0.00244016,1.955,0.0
1776413665196,1.50405,6.3790503,2.7829502,8.39283,0.1915375,-0.3394875,-1.0239625,-6.8348661,109.4553644,31.299999999999997,0.00244016,1.955,0.0
1776413665199,-7.4670005,14.161051,-3.9150002,14.863253,0.6864,-0.5630625,0.360525,-6.8348661,109.4553644,31.299999999999997,0.00244016,1.955,0.0
1776413665208,2.3130002,11.17395,-1.3120501,12.161466,-0.2512125,-0.4065875,-0.307725,-6.8348661,109.4553644,31.299999999999997,0.00244016,1.955,0.0
1776413665219,5.058,4.971,9.769051,12.08974,0.1489125,-0.63965,-0.70042497,-6.8348661,109.4553644,31.299999999999997,0.00244016,1.955,0.0
1776413665227,-2.93805,11.821051,-1.8750001,12.277279,0.2288,-0.7535,-0.1375,-6.8348661,109.4553644,31.299999999999997,0.00244016,1.955,0.0
1776413665244,-4.78905,10.5060005,-3.7039502,12.15594,0.08195,-0.661925,-0.6716875,-6.8348661,109.4553644,31.299999999999997,0.00244016,1.955,0.0
1776413665248,-1.6560001,5.2440004,7.2829504,9.73196,0.6204,-0.384175,-0.0842875,-6.8348661,109.4553644,31.299999999999997,0.00244016,1.955,0.0
1776413665258,1.779,8.094001,-4.63395,9.542231,0.5682875,-0.57475,0.2498375,-6.8348661,109.4553644,31.299999999999997,0.00244016,1.955,0.0
1776413665281,-8.058001,11.48295,-2.2410002,13.273279,0.3532375,-0.5907,-0.2715625,-6.8348661,109.4553644,31.299999999999997,0.00244016,1.955,0.0
1776413665282,-1.6129501,11.248051,2.6580002,11.99053,0.3532375,-0.5907,-0.2715625,-6.8348661,109.4553644,31.299999999999997,0.00244016,1.955,0.0
1776413665290,11.88195,14.424001,-11.13405,19.800627,0.1607375,-0.614075,0.3914625,-6.8348661,109.4553644,31.299999999999997,0.00244016,1.955,0.0
1776413665299,0.522,12.12705,0.22995001,13.672493,-0.2277,-0.0127875,-0.2173875,-6.8348661,109.4553644,31.299999999999997,0.00244016,1.955,0.0
1776413665310,-10.87005,12.594001,14.008051,20.13321,0.3586,-0.433125,0.3872,-6.8348661,109.4553644,31.299999999999997,0.00244016,1.955,0.0
1776413665321,3.6190503,10.887,0.19395001,13.206164,0.0628375,-0.63002497,0.37867498,-6.8348661,109.4553644,31.299999999999997,0.00244016,1.955,0.0
1776413665328,1.011,7.5270004,1.9900501,8.92203,-0.1255375,-0.0138875,0.1126125,-6.8348661,109.4553644,31.299999999999997,0.00244016,1.955,0.0
1776413665338,-12.046051,15.979051,10.02,19.687931,0.25753748,-0.3075875,-0.569525,-6.8348661,109.4553644,31.299999999999997,0.00244016,1.955,0.0
1776413665349,5.6400003,9.59805,-4.4880004,13.540064,-0.286275,-0.517275,0.2935625,-6.8348661,109.4553644,31.299999999999997,0.00244016,1.955,0.0
1776413665364,-1.24695,7.1650505,-4.2070503,9.429542,-0.46928748,0.0606375,-0.488675,-6.8348661,109.4553644,31.299999999999997,0.00244016,1.955,0.0
1776413665373,-21.59295,11.056951,15.483001,24.909166,-0.6331875,-0.174625,-0.605825,-6.8348661,109.4553644,31.299999999999997,0.00244016,1.955,0.0
1776413665378,4.6080003,5.8960505,10.30305,15.168882,0.24695,-1.0685124,0.89375,-6.8348661,109.4553644,31.299999999999997,0.00244016,1.955,0.0
1776413665398,19.396952,1.5679501,7.2109504,19.63639,0.188375,0.4140125,-0.0449625,-6.8348661,109.4553644,31.299999999999997,0.00244016,1.955,0.0
1776413665406,-5.0290504,10.471951,5.47695,14.20191,0.188375,0.4140125,-0.0449625,-6.8348661,109.4553644,31.299999999999997,0.00244016,1.955,0.0
1776413665412,-10.615951,18.23205,-20.830952,26.559198,-0.447975,0.1351625,0.3180375,-6.8348661,109.4553644,31.299999999999997,0.00244016,1.955,0.0
1776413665427,-2.69595,6.609,-6.55695,13.065678,-0.12773749,-0.1032625,1.0852875,-6.8348661,109.4553644,31.299999999999997,0.00244016,1.955,0.0
1776413665432,4.74195,5.754,-10.662001,13.021528,0.37565,0.3597,0.0891,-6.8348661,109.4553644,31.299999999999997,0.00244016,1.955,0.0
1776413665442,-2.5189502,7.84005,-13.981951,15.585682,-0.5907,0.040425,-0.1918125,-6.8348661,109.4553644,31.299999999999997,0.00244016,1.955,0.0
1776413665453,-8.169001,1.7880001,-6.1590004,11.425699,-0.4618625,0.0521125,0.7585875,-6.8348661,109.4553644,31.299999999999997,0.00244016,1.955,0.0
1776413665464,-11.2560005,7.122,7.254,14.418821,0.104225,-0.31295,0.89045,-6.8348661,109.4553644,31.299999999999997,0.00244016,1.955,0.0
1776413665472,-1.5649501,16.335001,10.97805,18.678425,-0.2234375,-0.579975,0.375375,-6.8348661,109.4553644,31.299999999999997,0.00244016,1.955,0.0
1776413665482,16.549051,12.58005,-6.37305,21.129837,0.3224375,-0.693825,0.75955,-6.8348661,109.4553644,31.299999999999997,0.00244016,1.955,0.0
1776413665502,13.1650505,15.033001,-33.28305,35.28278,-0.6810375,-0.6980875,0.4851,-6.8348661,109.4553644,31.299999999999997,0.00244016,1.955,0.0
1776413665502,-22.95495,12.991951,10.54695,29.782171,-0.6810375,-0.6980875,0.4851,-6.8348661,109.4553644,31.299999999999997,0.00244016,1.955,0.0
1776413665513,-12.135,-5.2980003,45.546,43.901787,1.2450625,-0.810975,0.361625,-6.8348661,109.4553644,31.299999999999997,0.00244016,1.955,0.0
1776413665527,26.424002,5.4550505,-4.4419503,30.65588,0.907775,-0.0276375,-0.3067625,-6.8348661,109.4553644,31.299999999999997,0.00244016,1.955,0.0
1776413665536,0.666,17.394001,-7.8769503,21.416016,-0.80135,0.496925,-0.4217125,-6.8348661,109.4553644,31.299999999999997,0.00244016,1.955,0.0
1776413665545,-20.611052,8.85795,17.09295,26.846151,1.169575,-0.2193125,0.56374997,-6.8348661,109.4553644,31.299999999999997,0.00244016,1.955,0.0
1776413665558,2.5240502,17.976002,-11.224951,22.443317,0.6215,0.2149125,0.8223875,-6.8348661,109.4553644,31.299999999999997,0.00244016,1.955,0.0
1776413665567,16.45095,13.65795,-12.6,24.343071,-0.99935,0.3213375,0.036025,-6.8348661,109.4553644,31.299999999999997,0.00244016,1.955,0.0
1776413665575,-1.5820501,2.67705,13.836,16.213516,-0.4714875,-0.288475,0.13915,-6.8348661,109.4553644,31.299999999999997,0.00244016,1.955,0.0
1776413665583,-18.07695,12.316951,22.573051,28.38901,0.2660625,-1.2302125,1.0044374,-6.8348661,109.4553644,31.299999999999997,0.00244016,1.955,0.0
1776413665593,4.596,12.024,8.55,18.040386,0.532125,-1.2122,0.4945875,-6.8348661,109.4553644,31.299999999999997,0.00244016,1.955,0.0
1776413665604,21.094952,6.8220005,-21.432001,28.276987,-0.026675,-0.19373749,-0.049225,-6.8348661,109.4553644,31.299999999999997,0.00244016,1.955,0.0
1776413665614,-18.70395,14.079,3.21105,24.559227,-0.026675,0.6076125,-0.489775,-6.8348661,109.4553644,31.299999999999997,0.00244016,1.955,0.0
1776413665629,-18.09795,14.185051,5.9110503,23.905603,0.2916375,-1.0833625,1.3066624,-6.8348661,109.4553644,31.299999999999997,0.00244016,1.955,0.0
1776413665634,24.23505,6.83895,-17.09505,29.129913,-0.6524375,-0.5300625,0.7447,-6.8348661,109.4553644,31.299999999999997,0.00244016,1.955,0.0
1776413665643,12.009001,10.51095,1.0200001,18.619396,0.25753748,0.6864,-0.0939125,-6.8348661,109.4553644,31.299999999999997,0.00244016,1.955,0.0
1776413665654,-3.1579502,14.589001,-7.2439504,16.997286,-0.2022625,-0.2649625,0.120037496,-6.8348661,109.4553644,31.299999999999997,0.00244016,1.955,0.0
1776413665665,-2.94705,8.595,-7.3999505,12.774092,-0.2022625,-0.2649625,0.120037496,-6.8348661,109.4553644,31.299999999999997,0.00244016,1.955,0.0
1776413665676,-4.1070004,7.6129503,22.63305,21.938599,-0.1340625,0.0446875,0.1912625,-6.8348661,109.4553644,31.299999999999997,0.00244016,1.955,0.0
1776413665684,5.1919503,1.9960501,18.666,19.969456,-0.0713625,-0.2618,-0.031075,-6.8348661,109.4553644,31.299999999999997,0.00244016,1.955,0.0
1776413665699,-6.76695,13.047001,-4.16895,16.215734,-0.746075,0.235125,0.63827497,-6.8348661,109.4553644,31.299999999999997,0.00244016,1.955,0.0
1776413665705,-18.987001,22.71795,-3.5130002,27.095394,-0.746075,0.235125,0.63827497,-6.8348661,109.4553644,31.299999999999997,0.00244016,1.955,0.0
1776413665714,5.037,4.4820004,12.595051,16.848026,0.3947625,-0.44055,0.8542875,-6.8348661,109.4553644,31.299999999999997,0.00244016,1.955,0.0
1776413665724,13.993951,7.347,-10.972951,18.762377,0.189475,0.7524,0.5457375,-6.8348661,109.4553644,31.299999999999997,0.00244016,1.955,0.0
1776413665737,-14.733001,11.095051,3.1009502,18.714344,-0.2000625,0.6235625,0.132825,-6.8348661,109.4553644,31.299999999999997,0.00244016,1.955,0.0
1776413665750,-7.2700505,3.21105,7.7640004,12.631304,0.48633748,0.1170125,0.7478625,-6.8348661,109.4553644,31.299999999999997,0.00244016,1.955,0.0
1776413665757,16.161001,5.4480004,-11.148001,18.826181,-0.5193375,0.60555,0.1912625,-6.8348661,109.4553644,31.299999999999997,0.00244016,1.955,0.0
1776413665765,-0.804,13.52595,6.6510005,15.840563,-0.1969,0.8630875,-0.1480875,-6.8348661,109.4553644,31.299999999999997,0.00244016,1.955,0.0
1776413665781,-7.6780505,11.104951,13.014001,18.169693,0.447975,-0.6513375,1.1023375,-6.8348661,109.4553644,31.299999999999997,0.00244016,1.955,0.0
1776413665793,13.363951,15.559051,-18.489,25.724985,0.6076125,0.6204,0.492525,-6.8348661,109.4553644,31.299999999999997,0.00244016,1.955,0.0
1776413665797,0.01695,15.258,-6.339,18.36292,-0.5963375,0.933075,-0.15895,-6.8348661,109.4553644,31.299999999999997,0.00244016,1.955,0.0
1776413665814,-6.2380505,6.67605,7.7209506,13.242404,0.2061125,-0.6716875,0.8892125,-6.8348661,109.4553644,31.299999999999997,0.00244016,1.955,0.0
1776413665821,10.64295,7.3039503,-16.44405,19.372631,-0.1131625,0.9161625,0.3284875,-6.8348661,109.4553644,31.299999999999997,0.00244016,1.955,0.0
1776413665828,-8.703,4.3170004,12.528001,16.557226,-0.3675375,0.7255875,-0.1142625,-6.8348661,109.4553644,31.299999999999997,0.00244016,1.955,0.0
1776413665837,-12.514951,10.434001,15.567,21.339403,0.586025,-0.3205125,1.08075,-6.8348661,109.4553644,31.299999999999997,0.00244016,1.955,0.0
1776413665845,10.79205,12.7570505,-1.79805,17.71273,0.485925,0.1211375,0.6774625,-6.8348661,109.4553644,31.299999999999997,0.00244016,1.955,0.0
1776413665857,10.665001,11.46405,-11.467051,19.06873,0.23265,0.1467125,0.0826375,-6.8348661,109.4553644,31.299999999999997,0.00244016,1.955,0.0
1776413665865,-6.19005,13.76805,-9.48795,18.077482,-0.460075,0.721325,0.5445,-6.8348661,109.4553644,31.299999999999997,0.00244016,1.955,0.0
1776413665879,-3.141,10.5060005,12.23595,16.759874,-0.2143625,0.1552375,0.565675,-6.8348661,109.4553644,31.299999999999997,0.00244016,1.955,0.0
1776413665886,10.063951,-0.99405,7.1269503,13.249519,0.00385,0.084975,0.144375,-6.8348661,109.4553644,31.299999999999997,0.00244016,1.955,0.0
1776413665896,-7.11,14.494051,0.30405003,15.567415,0.7838875,0.4170375,0.6296125,-6.8348661,109.4553644,31.299999999999997,0.00244016,1.955,0.0
1776413665907,5.4630003,12.41205,-0.16695,13.963183,-0.7921375,0.1552375,0.2773375,-6.8348661,109.4553644,31.299999999999997,0.00244016,1.955,0.0
1776413665917,6.7390504,1.5340501,11.175,13.304306,0.7616125,0.0721875,0.27101249,-6.8348661,109.4553644,31.299999999999997,0.00244016,1.955,0.0
1776413665929,-4.66905,23.319,-17.00205,26.048319,-0.94435,-0.1959375,0.88495,-6.8348661,109.4553644,31.299999999999997,0.00244016,1.955,0.0
1776413665937,11.953051,8.149051,-14.85105,21.795654,-0.938025,0.0061875,0.010175,-6.8348661,109.4553644,31.299999999999997,0.00244016,1.955,0.0
1776413665947,1.3219501,0.24795002,12.576,14.477306,-0.527175,0.5872625,-0.11,-6.8348661,109.4553644,31.299999999999997,0.00244016,1.955,0.0
1776413665964,-26.83995,11.236051,40.67205,42.90224,0.3784,0.01155,0.6296125,-6.8348661,109.4553644,31.299999999999997,0.00244016,1.955,0.0
1776413665969,7.34805,7.4020505,4.28895,17.602352,1.2414875,0.1552375,0.1060125,-6.8348661,109.4553644,31.299999999999997,0.00244016,1.955,0.0
1776413665977,15.94095,20.97495,-33.585003,37.66852,0.076175,0.380875,0.2773375,-6.8348661,109.4553644,31.299999999999997,0.00244016,1.955,0.0
1776413665989,-5.18205,16.302,1.7910001,21.29316,-0.48785,0.330825,0.2943875,-6.8348661,109.4553644,31.299999999999997,0.00244016,1.955,0.0
1776413666001,6.15495,5.019,2.73195,10.977552,0.4444,0.0710875,0.3166625,-6.8348661,109.4553644,31.299999999999997,0.00244016,1.955,0.0
1776413666012,0.36405003,11.713051,-10.633051,14.854481,-0.12485,0.166925,0.3518625,-6.8348661,109.4553644,31.299999999999997,0.00244016,1.955,0.0
1776413666018,-3.7189503,5.2819505,0.22695,8.14196,-0.2707375,0.229625,0.274175,-6.8348661,109.4553644,31.299999999999997,0.00244016,1.955,0.0
1776413666029,10.16895,-2.77095,-5.6350503,11.189631,0.2816,-0.1034,0.33165,-6.8348661,109.4553644,31.299999999999997,0.00244016,1.955,0.0
1776413666037,2.2800002,14.27805,-3.8100002,14.199925,-0.3058,0.66385,0.3359125,-6.8348661,109.4553644,31.299999999999997,0.00244016,1.955,0.0
1776413666049,2.1070502,3.0210001,23.454,21.833141,-0.26427498,0.14025,-0.29095,-6.8348661,109.4553644,31.299999999999997,0.00244016,1.955,0.0
1776413666060,-6.162,10.080001,13.251,18.568953,1.60545,-0.3641,0.16665,-6.8348661,109.4553644,31.299999999999997,0.00244016,1.955,0.0
1776413666067,2.325,26.914051,-29.416952,35.665043,0.225225,0.168025,0.356125,-6.8348661,109.4553644,31.299999999999997,0.00244016,1.955,0.0
1776413666089,15.976951,10.8820505,-15.694051,27.05261,0.088,0.428725,-0.0451,-6.8348661,109.4553644,31.299999999999997,0.00244016,1.955,0.0
1776413666098,3.1639502,9.02595,9.26595,16.063932,0.088,0.428725,-0.0451,-6.8348661,109.4553644,31.299999999999997,0.00244016,1.955,0.0
1776413666099,-7.6780505,10.55895,2.2800002,13.815195,0.088,0.428725,-0.0451,-6.8348661,109.4553644,31.299999999999997,0.00244016,1.955,0.0
1776413666107,-12.06,13.291051,-0.66,17.130363,-0.8177125,-0.9238625,0.4668125,-6.8348661,109.4553644,31.299999999999997,0.00244016,1.955,0.0
1776413666118,5.4870005,3.7470002,12.418051,14.693162,-0.3026375,0.201025,0.4508625,-6.8348661,109.4553644,31.299999999999997,0.00244016,1.955,0.0
1776413666133,8.16495,5.9170504,3.6739502,11.524233,0.79667497,0.8405375,-0.015262499,-6.8348661,109.4553644,31.299999999999997,0.00244016,1.955,0.0
1776413666140,-9.012,19.177952,-14.643001,22.910515,-0.81455,-0.100237496,0.6136625,-6.8348661,109.4553644,31.299999999999997,0.00244016,1.955,0.0
1776413666148,3.2209501,5.1199503,4.3060503,10.522096,0.3007125,0.199925,0.5231875,-6.8348661,109.4553644,31.299999999999997,0.00244016,1.955,0.0
1776413666167,17.20095,5.1480002,-9.328051,18.291075,-0.1951125,-0.23539999,-0.642125,-6.8348661,109.4553644,31.299999999999997,0.00244016,1.955,0.0
1776413666169,-7.5720005,16.908,-6.183,19.282713,-0.5314375,-0.0831875,0.3518625,-6.8348661,109.4553644,31.299999999999997,0.00244016,1.955,0.0
1776413666178,10.75395,1.7040001,-7.1050506,14.257552,0.1167375,0.2424125,-0.2803625,-6.8348661,109.4553644,31.299999999999997,0.00244016,1.955,0.0
1776413666190,8.2240505,11.526001,-6.0160503,15.158947,-1.2115124,-0.012925,-0.4580125,-6.8348661,109.4553644,31.299999999999997,0.00244016,1.955,0.0
1776413666201,-23.130001,13.876051,32.99805,37.127304,-1.2115124,-0.012925,-0.4580125,-6.8348661,109.4553644,31.299999999999997,0.00244016,1.955,0.0
1776413666209,-7.2390003,12.11295,5.3190002,19.48978,1.1265374,-0.93885,0.5625125,-6.8348661,109.4553644,31.299999999999997,0.00244016,1.955,0.0
1776413666219,22.824001,14.524951,-40.126053,42.613407,-1.0912,0.0328625,0.337975,-6.8348661,109.4553644,31.299999999999997,0.00244016,1.955,0.0
1776413666236,-0.768,1.0669501,23.90895,27.678734,1.060675,-0.6290625,0.6105,-6.8348661,109.4553644,31.299999999999997,0.00244016,1.955,0.0
1776413666239,-18.65895,-10.62195,51.92805,50.48909,1.9853625,0.2531375,0.1390125,-6.8348661,109.4553644,31.299999999999997,0.00244016,1.955,0.0
1776413666249,0.71805006,8.22105,-16.55595,24.896753,0.8083625,0.345675,0.389125,-6.8348661,109.4553644,31.299999999999997,0.00244016,1.955,0.0
1776413666260,-3.522,15.286051,7.3669505,18.843603,-1.230625,0.5713125,0.2135375,-6.8348661,109.4553644,31.299999999999997,0.00244016,1.955,0.0
1776413666269,2.05995,4.197,41.814003,37.428375,1.67145,-0.8430125,1.074425,-6.8348661,109.4553644,31.299999999999997,0.00244016,1.955,0.0
1776413666283,24.094051,24.17205,-41.03805,50.185993,0.4805625,0.86817497,0.2124375,-6.8348661,109.4553644,31.299999999999997,0.00244016,1.955,0.0
1776413666291,6.2719502,35.674953,-67.60095,71.39219,-2.5405874,0.0924,0.1709125,-6.8348661,109.4553644,31.299999999999997,0.00244016,1.955,0.0
1776413666299,4.01895,-4.00005,21.136051,31.78519,-1.6478,0.672375,0.1645875,-6.8348661,109.4553644,31.299999999999997,0.00244016,1.955,0.0
1776413666313,11.326051,-11.400001,23.767952,29.309582,0.994675,1.0363375,-0.9400875,-6.8348661,109.4553644,31.299999999999997,0.00244016,1.955,0.0
1776413666319,-27.706951,20.364,13.12905,35.30735,-1.27215,0.0710875,0.00385,-6.8348661,109.4553644,31.299999999999997,0.00244016,1.955,0.0
1776413666330,-12.469951,-0.108,29.094002,32.38463,1.3948,-0.110825,0.730675,-6.8348661,109.4553644,31.299999999999997,0.00244016,1.955,0.0
1776413666340,17.986052,17.01795,-27.456001,36.054653,1.437425,-1.2783375,0.254925,-6.8348661,109.4553644,31.299999999999997,0.00244016,1.955,0.0
1776413666351,20.496,22.62705,-38.03205,46.226875,1.437425,-1.2783375,0.254925,-6.8348661,109.4553644,31.299999999999997,0.00244016,1.955,0.0
1776413666360,-5.5579505,-2.5080001,27.937952,32.12188,-0.3653375,-0.2066625,0.00275,-6.8348661,109.4553644,31.299999999999997,0.00244016,1.955,0.0
1776413666369,-8.116051,0.813,2.9340003,13.359025,0.3018125,0.07755,-0.45168748,-6.8348661,109.4553644,31.299999999999997,0.00244016,1.955,0.0
1776413666384,-7.22205,9.375,5.5800004,13.138822,0.0922625,-0.193875,0.2943875,-6.8348661,109.4553644,31.299999999999997,0.00244016,1.955,0.0
1776413666397,4.131,6.3169503,22.372051,21.516537,0.128425,-0.5396875,0.3741375,-6.8348661,109.4553644,31.299999999999997,0.00244016,1.955,0.0
1776413666397,6.6049504,15.67905,-1.83405,17.992935,0.5880875,-0.05555,-0.464475,-6.8348661,109.4553644,31.299999999999997,0.00244016,1.955,0.0
1776413666408,0.87405,33.05295,-38.334003,44.097534,0.126225,-0.60885,0.2145,-6.8348661,109.4553644,31.299999999999997,0.00244016,1.955,0.0
1776413666418,12.222,14.776051,-6.4900503,25.014908,-1.7744375,0.5946875,0.3570875,-6.8348661,109.4553644,31.299999999999997,0.00244016,1.955,0.0
1776413666433,10.033051,-5.0800505,23.671951,25.968939,-0.4569125,0.3084125,-0.5900125,-6.8348661,109.4553644,31.299999999999997,0.00244016,1.955,0.0
1776413666447,-23.935051,12.931951,22.575,33.47526,-0.1876875,0.3872,-0.462275,-6.8348661,109.4553644,31.299999999999997,0.00244016,1.955,0.0
1776413666453,-12.694951,1.5490501,56.45505,53.003475,-0.87945,-0.7781125,0.4912875,-6.8348661,109.4553644,31.299999999999997,0.00244016,1.955,0.0
1776413666466,24.35205,-2.8140001,3.6139503,30.423939,1.54055,1.1939125,-1.0401875,-6.8348661,109.4553644,31.299999999999997,0.00244016,1.955,0.0
1776413666471,-10.291051,37.419003,-42.453003,52.09936,-0.54202497,-0.21945,0.2858625,-6.8348661,109.4553644,31.299999999999997,0.00244016,1.955,0.0
1776413666479,6.0040503,16.299002,-16.515001,29.594044,-1.6020125,-1.5549875,1.11705,-6.8348661,109.4553644,31.299999999999997,0.00244016,1.955,0.0
1776413666490,44.41305,-7.2520504,-35.458054,51.75249,0.83503747,0.067925,0.0804375,-6.8348661,109.4553644,31.299999999999997,0.00244016,1.955,0.0
1776413666499,-4.4560504,14.25405,-30.591002,37.58393,-0.9581,1.61315,-2.4215126,-6.8348661,109.4553644,31.299999999999997,0.00244016,1.955,0.0
1776413666515,-55.374004,8.95905,52.56795,69.01767,1.5362875,-1.1517,1.5129125,-6.8348661,109.4553644,31.299999999999997,0.00244016,1.955,0.0
1776413666519,2.2699502,-11.191951,49.555054,54.48663,1.550175,-0.89196247,1.1202124,-6.8348661,109.4553644,31.299999999999997,0.00244016,1.955,0.0
1776413666529,29.55705,9.12405,-29.223001,44.94061,2.5942125,0.17545,-0.347325,-6.8348661,109.4553644,31.299999999999997,0.00244016,1.955,0.0
1776413666539,-22.03305,35.953053,-32.562,51.60914,-1.3135375,0.5946875,-0.5814875,-6.8348661,109.4553644,31.299999999999997,0.00244016,1.955,0.0
1776413666551,0.23895001,-14.752951,67.384056,65.50628,-1.9372375,-0.3322,1.1372625,-6.8348661,109.4553644,31.299999999999997,0.00244016,1.955,0.0
1776413666561,19.53405,-3.17805,-1.3069501,28.96845,3.92975,0.1381875,-0.4005375,-6.8348661,109.4553644,31.299999999999997,0.00244016,1.955,0.0
1776413666569,-23.820002,26.84205,-28.942951,42.676926,-0.91245,0.4074125,-0.5548125,-6.8348661,109.4553644,31.299999999999997,0.00244016,1.955,0.0
1776413666586,10.095,-12.595051,26.083952,33.074883,1.254275,-0.015125,-0.4569125,-6.8348661,109.4553644,31.299999999999997,0.00244016,1.955,0.0
1776413666590,18.043951,5.45205,22.03605,29.81355,0.830775,-0.011825,-0.8518125,-6.8348661,109.4553644,31.299999999999997,0.00244016,1.955,0.0
1776413666600,-16.744951,27.469952,-0.51405,31.703026,1.2309,0.41593748,-0.5049,-6.8348661,109.4553644,31.299999999999997,0.00244016,1.955,0.0
1776413666618,7.5390005,12.53205,-32.655003,34.96494,0.2624875,-1.45915,0.8817875,-6.8348661,109.4553644,31.299999999999997,0.00244016,1.955,0.0
1776413666619,15.48795,8.916,-23.001001,30.295078,-0.575025,1.3726625,-0.3601125,-6.8348661,109.4553644,31.299999999999997,0.00244016,1.955,0.0
1776413666633,-13.761001,16.01205,18.822,28.686697,0.2943875,-0.898425,1.0775875,-6.8348661,109.4553644,31.299999999999997,0.00244016,1.955,0.0
1776413666640,25.51605,-7.6140003,-16.366951,30.741901,0.5317125,0.10725,0.339075,-6.8348661,109.4553644,31.299999999999997,0.00244016,1.955,0.0
1776413666650,-22.765951,16.66395,14.764951,31.622816,-1.2742125,0.23925,-0.46873748,-6.8348661,109.4553644,31.299999999999997,0.00244016,1.955,0.0
1776413666663,-28.354052,11.0140505,45.055054,49.814106,0.292325,-1.4465,0.95205,-6.8348661,109.4553644,31.299999999999997,0.00244016,1.955,0.0
1776413666669,44.71305,15.379951,-64.21695,73.76058,2.5771625,-3.105575,1.3234375,-6.8348661,109.4553644,31.299999999999997,0.00244016,1.955,0.0
1776413666681,26.106,18.168001,-40.29795,55.822006,-2.6992624,3.21805,-1.1253,-6.8348661,109.4553644,31.299999999999997,0.00244016,1.955,0.0
1776413666693,-31.639952,-5.49195,49.153053,58.135174,-1.8777,-0.732325,-1.1284626,-6.8348661,109.4553644,31.299999999999997,0.00244016,1.955,0.0
1776413666700,-1.4070001,4.20195,-12.588,22.303177,1.9694124,-0.242825,0.19855,-6.8348661,109.4553644,31.299999999999997,0.00244016,1.955,0.0
1776413666710,-4.5280504,13.396951,19.608002,23.801044,-2.0681374,0.66495,-0.4175875,-6.8348661,109.4553644,31.299999999999997,0.00244016,1.955,0.0
1776413666720,-0.48495004,-11.026951,58.759052,52.589607,0.4519625,-0.7547375,0.23155,-6.8348661,109.4553644,31.299999999999997,0.00244016,1.955,0.0
1776413666736,-0.67695004,25.173,-33.232952,43.874825,0.4679125,-0.34925,0.550825,-6.8348661,109.4553644,31.299999999999997,0.00244016,1.955,0.0
1776413666741,2.6100001,28.725002,-29.668951,41.877808,-3.2547624,0.7693125,0.372075,-6.8348661,109.4553644,31.299999999999997,0.00244016,1.955,0.0
1776413666750,4.52895,-8.14095,56.623055,54.282993,-1.1933625,-0.0587125,0.95315,-6.8348661,109.4553644,31.299999999999997,0.00244016,1.955,0.0
1776413666770,10.864051,9.262951,-12.958951,26.281551,2.88475,-0.0895125,-0.3026375,-6.8348661,109.4553644,31.299999999999997,0.00244016,1.955,0.0
1776413666770,-4.42995,23.983051,-40.549053,43.11108,-1.016675,0.9629125,-0.4431625,-6.8348661,109.4553644,31.299999999999997,0.00244016,1.955,0.0
1776413666781,0.20805001,-5.60895,21.32505,26.263283,-1.607375,-0.4758875,0.829675,-6.8348661,109.4553644,31.299999999999997,0.00244016,1.955,0.0
1776413666791,14.76,2.19,3.6379502,17.539583,1.4224375,0.443575,-0.4272125,-6.8348661,109.4553644,31.299999999999997,0.00244016,1.955,0.0
1776413666802,-13.962001,22.974,10.777051,26.678755,-0.7932375,0.689425,-0.9964625,-6.8348661,109.4553644,31.299999999999997,0.00244016,1.955,0.0
1776413666815,-3.012,9.31305,7.5319505,15.216167,0.4901875,-1.3176625,0.8232125,-6.8348661,109.4553644,31.299999999999997,0.00244016,1.955,0.0
1776413666828,26.404951,17.653051,-42.348003,45.391922,-0.1557875,0.49995,6.875E-4,-6.8348661,109.4553644,31.299999999999997,0.00244016,1.955,0.0
1776413666833,-2.4540002,13.785001,2.50005,20.45692,-2.3362625,1.3960375,-1.2126125,-6.8348661,109.4553644,31.299999999999997,0.00244016,1.955,0.0
1776413666841,-30.679052,0.98100007,47.299053,49.200085,-0.0460625,-0.2567125,-0.003575,-6.8348661,109.4553644,31.299999999999997,0.00244016,1.955,0.0
1776413666860,-3.1369503,4.839,6.636,16.873327,-0.1439625,-0.41525,0.44233748,-6.8348661,109.4553644,31.299999999999997,0.00244016,1.955,0.0
1776413666862,5.67105,-8.248051,41.316,37.383633,-1.0443125,-0.3438875,-0.1398375,-6.8348661,109.4553644,31.299999999999997,0.00244016,1.955,0.0
1776413666898,-6.4350004,23.094002,-11.397,28.712679,0.8446625,-0.553575,-0.0845625,-6.8348661,109.4553644,31.299999999999997,0.00244016,1.955,0.0
1776413666898,11.464951,19.600052,-33.889053,38.376995,1.1192499,-0.9505375,0.7616125,-6.8348661,109.4553644,31.299999999999997,0.00244016,1.955,0.0
1776413666903,31.801052,23.923052,-36.31005,50.771862,1.1192499,-0.9505375,0.7616125,-6.8348661,109.4553644,31.299999999999997,0.00244016,1.955,0.0
1776413666908,33.315002,17.48505,-39.58395,53.84423,0.1964875,-1.2368125,0.3487,-6.8348661,109.4553644,31.299999999999997,0.00244016,1.955,0.0
1776413666923,24.697052,9.5119505,-19.813051,37.217026,-0.8804125,0.885225,-1.037025,-6.8348661,109.4553644,31.299999999999997,0.00244016,1.955,0.0
1776413666924,3.7720501,4.959,0.21000001,12.430695,-0.8804125,0.885225,-1.037025,-6.8348661,109.4553644,31.299999999999997,0.00244016,1.955,0.0
1776413666924,-13.387051,2.2690501,7.3690505,14.845159,-0.8804125,0.885225,-1.037025,-6.8348661,109.4553644,31.299999999999997,0.00244016,1.955,0.0
1776413666936,-22.75695,15.53295,9.766951,26.355108,0.10395,0.691625,-0.8305,-6.8348661,109.4553644,31.299999999999997,0.00244016,1.955,0.0
1776413666943,-36.217052,22.147951,20.757002,43.075233,0.10395,0.691625,-0.8305,-6.8348661,109.4553644,31.299999999999997,0.00244016,1.955,0.0
1776413666943,-17.739,1.23705,10.863001,25.285156,0.10395,0.691625,-0.8305,-6.8348661,109.4553644,31.299999999999997,0.00244016,1.955,0.0
1776413666951,23.518951,-11.055,0.025950002,25.847103,1.0308375,-0.18645,-0.7836125,-6.8348661,109.4553644,31.299999999999997,0.00244016,1.955,0.0
1776413666951,13.90995,4.8439503,-12.916051,20.84156,1.0308375,-0.18645,-0.7836125,-6.8348661,109.4553644,31.299999999999997,0.00244016,1.955,0.0
1776413666955,-13.78995,19.441952,-17.695951,27.917656,1.0308375,-0.18645,-0.7836125,-6.8348661,109.4553644,31.299999999999997,0.00244016,1.955,0.0
1776413666960,-16.42395,17.236052,3.6160502,24.84848,1.0308375,-0.18645,-0.7836125,-6.8348661,109.4553644,31.299999999999997,0.00244016,1.955,0.0
1776413666962,-3.522,4.3050003,6.5670004,11.8544855,-0.84645,-0.3779875,0.2602875,-6.8348661,109.4553644,31.299999999999997,0.00244016,1.955,0.0
1776413666967,20.70495,-5.5090504,-23.439001,27.775545,0.07095,-0.6238375,0.780725,-6.8348661,109.4553644,31.299999999999997,0.00244016,1.955,0.0
1776413666972,33.133053,3.7159503,-36.487953,45.096306,0.4497625,-1.06755,0.4805625,-6.8348661,109.4553644,31.299999999999997,0.00244016,1.955,0.0
1776413666980,15.4480505,13.545001,-16.37895,30.039318,-0.2611125,-0.405625,-0.316525,-6.8348661,109.4553644,31.299999999999997,0.00244016,1.955,0.0
1776413666983,-21.577951,13.738951,28.728,36.780994,-1.36675,1.343925,-0.91355,-6.8348661,109.4553644,31.299999999999997,0.00244016,1.955,0.0
1776413666988,-19.76505,-2.565,49.81095,50.27653,-2.0329375,0.6117375,-0.528275,-6.8348661,109.4553644,31.299999999999997,0.00244016,1.955,0.0
1776413666993,10.66695,-9.42405,27.268951,34.663498,-0.8091875,-0.4855125,0.4475625,-6.8348661,109.4553644,31.299999999999997,0.00244016,1.955,0.0
1776413666998,8.62395,1.9770001,-23.233051,26.821281,1.336225,-0.619575,0.1071125,-6.8348661,109.4553644,31.299999999999997,0.00244016,1.955,0.0
1776413667003,7.458,24.354002,-32.11695,38.156822,1.60765,-0.1640375,-0.137775,-6.8348661,109.4553644,31.299999999999997,0.00244016,1.955,0.0
1776413667013,-3.759,27.361952,-9.903001,31.103914,-1.719025,0.738375,-0.077,-6.8348661,109.4553644,31.299999999999997,0.00244016,1.955,0.0
1776413667018,-14.463,5.7180004,26.067001,30.503946,-1.719025,0.738375,-0.077,-6.8348661,109.4553644,31.299999999999997,0.00244016,1.955,0.0
1776413667024,10.35105,-11.031,42.17805,41.94771,-0.425975,-0.2693625,0.5209875,-6.8348661,109.4553644,31.299999999999997,0.00244016,1.955,0.0
1776413667035,14.727,-2.4019501,24.252,31.16937,-0.425975,-0.2693625,0.5209875,-6.8348661,109.4553644,31.299999999999997,0.00244016,1.955,0.0
1776413667036,1.9729501,9.87405,-11.81595,18.65337,0.944625,0.4808375,0.0559625,-6.8348661,109.4553644,31.299999999999997,0.00244016,1.955,0.0
1776413667036,6.5070004,14.665951,-12.26895,19.889057,0.944625,0.4808375,0.0559625,-6.8348661,109.4553644,31.299999999999997,0.00244016,1.955,0.0
1776413667038,-14.74995,13.9810505,0.51900005,20.24164,-0.2696375,0.4148375,-0.32175,-6.8348661,109.4553644,31.299999999999997,0.00244016,1.955,0.0
1776413667044,-17.988,6.1450505,6.162,20.034323,-0.4728625,0.690525,-0.1824625,-6.8348661,109.4553644,31.299999999999997,0.00244016,1.955,0.0
1776413667048,9.036,4.15395,8.490001,14.467754,-0.363275,-0.20019999,0.5966125,-6.8348661,109.4553644,31.299999999999997,0.00244016,1.955,0.0
1776413667054,4.0669503,2.1739502,-0.91695005,6.654992,-0.2739,-0.20019999,0.33165,-6.8348661,109.4553644,31.299999999999997,0.00244016,1.955,0.0
1776413667060,9.628051,2.7769501,0.26805001,9.350282,0.162525,0.050875,0.193325,-6.8348661,109.4553644,31.299999999999997,0.00244016,1.955,0.0
1776413667071,9.313951,14.577001,2.8660502,15.897524,0.5231875,0.0562375,-0.5325375,-6.8348661,109.4553644,31.299999999999997,0.00244016,1.955,0.0
1776413667071,-7.9339504,21.889051,-13.066951,24.538506,0.5231875,0.0562375,-0.5325375,-6.8348661,109.4553644,31.299999999999997,0.00244016,1.955,0.0
1776413667079,1.48695,17.896952,-8.953951,20.961315,0.128425,0.215875,-0.02915,-6.8348661,109.4553644,31.299999999999997,0.00244016,1.955,0.0
1776413667083,-1.419,17.986052,14.001,22.462057,-0.722975,0.07535,-0.0015125,-6.8348661,109.4553644,31.299999999999997,0.00244016,1.955,0.0
1776413667086,-9.28695,15.658051,6.01095,19.829762,-0.58465,-0.0171875,-0.234575,-6.8348661,109.4553644,31.299999999999997,0.00244016,1.955,0.0
1776413667089,18.87705,12.015,-17.61,26.745808,0.600875,-0.3694625,0.5135625,-6.8348661,109.4553644,31.299999999999997,0.00244016,1.955,0.0
1776413667104,22.824001,17.365051,-31.282951,39.30069,0.4008125,-0.6056875,0.29645,-6.8348661,109.4553644,31.299999999999997,0.00244016,1.955,0.0
1776413667105,5.334,14.905951,-31.93695,36.376606,-1.8616124,0.6831,-0.45265,-6.8348661,109.4553644,31.299999999999997,0.00244016,1.955,0.0
1776413667105,0.16305001,9.28905,0.177,14.709055,-1.8616124,0.6831,-0.45265,-6.8348661,109.4553644,31.299999999999997,0.00244016,1.955,0.0
1776413667109,-15.114,1.9219501,30.298952,30.072939,-1.46685,0.3903625,-0.4027375,-6.8348661,109.4553644,31.299999999999997,0.00244016,1.955,0.0
1776413667114,-17.856,-8.337001,35.578053,38.551487,-1.46685,0.3903625,-0.4027375,-6.8348661,109.4553644,31.299999999999997,0.00244016,1.955,0.0
1776413667119,-2.7820501,-15.517051,29.109001,34.19323,-0.61861247,-0.0576125,0.127325,-6.8348661,109.4553644,31.299999999999997,0.00244016,1.955,0.0
1776413667137,-9.32505,-5.3359504,34.260002,35.562737,-0.2173875,-0.2035,-0.0567875,-6.8348661,109.4553644,31.299999999999997,0.00244016,1.955,0.0
1776413667138,-19.108952,-1.69305,26.00205,32.962887,-0.2173875,-0.2035,-0.0567875,-6.8348661,109.4553644,31.299999999999997,0.00244016,1.955,0.0
1776413667138,1.5160501,1.9699501,23.586,25.565882,0.390225,-0.0917125,0.16775,-6.8348661,109.4553644,31.299999999999997,0.00244016,1.955,0.0
1776413667139,-11.7949505,10.008,18.939001,24.675863,0.390225,-0.0917125,0.16775,-6.8348661,109.4553644,31.299999999999997,0.00244016,1.955,0.0
1776413667146,-11.2560005,15.775051,14.39805,24.249063,0.700975,-0.2118875,-0.0026125,-6.8348661,109.4553644,31.299999999999997,0.00244016,1.955,0.0
1776413667152,10.48005,13.354051,-3.3379502,18.690138,1.0840499,0.180675,0.9372,-6.8348661,109.4553644,31.299999999999997,0.00244016,1.955,0.0
1776413667158,12.0400505,25.819952,-31.58505,37.766235,1.420375,-0.832425,0.4731375,-6.8348661,109.4553644,31.299999999999997,0.00244016,1.955,0.0
1776413667172,16.597052,31.38795,-56.467052,60.91507,1.6566,-0.668525,0.26345,-6.8348661,109.4553644,31.299999999999997,0.00244016,1.955,0.0
1776413667173,29.796001,27.412052,-48.313953,62.611324,-1.0209374,0.918225,0.386925,-6.8348661,109.4553644,31.299999999999997,0.00244016,1.955,0.0
1776413667179,22.73595,18.096,-21.736952,41.553383,-1.0209374,0.918225,0.386925,-6.8348661,109.4553644,31.299999999999997,0.00244016,1.955,0.0
1776413667185,12.283951,12.333,-7.5799503,23.499178,-1.9872875,0.2360875,-0.463375,-6.8348661,109.4553644,31.299999999999997,0.00244016,1.955,0.0
1776413667187,9.67605,4.5139503,7.5420003,15.157628,-1.359325,0.7693125,-0.3452625,-6.8348661,109.4553644,31.299999999999997,0.00244016,1.955,0.0
1776413667190,-8.602051,9.5460005,26.854952,26.84829,-1.359325,0.7693125,-0.3452625,-6.8348661,109.4553644,31.299999999999997,0.00244016,1.955,0.0
1776413667205,-24.904951,4.506,30.250952,36.923355,-0.8718875,0.5201625,-0.870925,-6.8348661,109.4553644,31.299999999999997,0.00244016,1.955,0.0
1776413667210,-10.519951,2.7250502,22.86495,27.637493,0.7679375,0.1700875,-0.02805,-6.8348661,109.4553644,31.299999999999997,0.00244016,1.955,0.0
1776413667210,-5.26095,7.0980005,2.66295,12.909661,0.7679375,0.1700875,-0.02805,-6.8348661,109.4553644,31.299999999999997,0.00244016,1.955,0.0
1776413667215,-9.402,11.701051,-3.012,14.829625,0.7679375,0.1700875,-0.02805,-6.8348661,109.4553644,31.299999999999997,0.00244016,1.955,0.0
1776413667220,-6.4609504,16.479,12.35595,20.235012,-0.2281125,-0.3535125,-0.109037496,-6.8348661,109.4553644,31.299999999999997,0.00244016,1.955,0.0
1776413667236,-3.1990502,8.37405,15.610051,18.447721,-0.5963375,-0.1555125,0.1145375,-6.8348661,109.4553644,31.299999999999997,0.00244016,1.955,0.0
1776413667236,9.762,5.76105,5.13495,13.644774,0.115637496,-0.472725,0.010175,-6.8348661,109.4553644,31.299999999999997,0.00244016,1.955,0.0
1776413667237,9.958051,17.241001,4.47405,19.054287,0.115637496,-0.472725,0.010175,-6.8348661,109.4553644,31.299999999999997,0.00244016,1.955,0.0
1776413667242,-4.97805,12.441001,-5.18205,15.304526,0.21573749,-0.322575,-0.447425,-6.8348661,109.4553644,31.299999999999997,0.00244016,1.955,0.0
1776413667246,2.77605,3.0570002,-9.838051,11.596533,0.129525,0.3180375,0.0793375,-6.8348661,109.4553644,31.299999999999997,0.00244016,1.955,0.0
1776413667250,1.437,10.161,-14.319,16.412588,-0.0163625,-0.225775,-0.086625,-6.8348661,109.4553644,31.299999999999997,0.00244016,1.955,0.0
1776413667258,-3.7350001,17.437052,-23.490002,26.87616,0.242275,-0.109725,-0.266475,-6.8348661,109.4553644,31.299999999999997,0.00244016,1.955,0.0
1776413667271,12.255,16.149,-8.2240505,22.876963,-1.46465,0.0946,0.1848,-6.8348661,109.4553644,31.299999999999997,0.00244016,1.955,0.0
1776413667272,6.83505,7.9240503,22.527,24.446568,-1.46465,0.0946,0.1848,-6.8348661,109.4553644,31.299999999999997,0.00244016,1.955,0.0
1776413667275,-8.274,-4.73295,60.703953,54.04754,-2.1393626,0.31913748,-0.2399375,-6.8348661,109.4553644,31.299999999999997,0.00244016,1.955,0.0
1776413667281,-4.44705,-3.90405,61.08705,59.907913,-1.0294625,0.40425,0.03575,-6.8348661,109.4553644,31.299999999999997,0.00244016,1.955,0.0
1776413667285,-8.0130005,13.375051,5.958,25.334587,1.585375,0.069025,-0.1579875,-6.8348661,109.4553644,31.299999999999997,0.00244016,1.955,0.0
1776413667287,-8.38605,35.625,-40.569,48.777313,2.7996376,-0.528,-0.3749625,-6.8348661,109.4553644,31.299999999999997,0.00244016,1.955,0.0
1776413667297,1.0699501,31.750051,-44.556004,53.532703,1.666225,-0.2534125,0.24007499,-6.8348661,109.4553644,31.299999999999997,0.00244016,1.955,0.0
1776413667300,12.616951,9.795,-23.593052,33.499687,-0.7016625,0.0710875,0.860475,-6.8348661,109.4553644,31.299999999999997,0.00244016,1.955,0.0
1776413667305,19.93395,-2.7139502,8.991,24.328388,-1.848825,0.021175,0.59125,-6.8348661,109.4553644,31.299999999999997,0.00244016,1.955,0.0
1776413667307,9.88395,5.4619503,35.371952,34.570362,-1.6478,0.3084125,0.125125,-6.8348661,109.4553644,31.299999999999997,0.00244016,1.955,0.0
1776413667317,-9.2029505,8.619,36.676952,37.941086,-0.0694375,-0.104499996,-0.348425,-6.8348661,109.4553644,31.299999999999997,0.00244016,1.955,0.0
1776413667318,-15.805951,7.4400005,48.100952,48.52824,-0.0694375,-0.104499996,-0.348425,-6.8348661,109.4553644,31.299999999999997,0.00244016,1.955,0.0
1776413667321,-23.595001,11.62005,46.13505,52.19004,-0.0694375,-0.104499996,-0.348425,-6.8348661,109.4553644,31.299999999999997,0.00244016,1.955,0.0
1776413667321,-20.68305,11.983951,11.12895,31.532192,-0.0694375,-0.104499996,-0.348425,-6.8348661,109.4553644,31.299999999999997,0.00244016,1.955,0.0
1776413667328,3.2040002,11.931001,-4.36305,16.787678,0.85745,-1.0197,0.6689375,-6.8348661,109.4553644,31.299999999999997,0.00244016,1.955,0.0
1776413667330,11.656051,8.41005,3.2710502,15.150205,0.3529625,-0.9750125,0.62315,-6.8348661,109.4553644,31.299999999999997,0.00244016,1.955,0.0
1776413667338,11.86005,-0.18405001,11.60295,16.304333,0.3859625,-0.0405625,0.5764,-6.8348661,109.4553644,31.299999999999997,0.00244016,1.955,0.0
1776413667341,17.625,2.77005,11.58705,20.279886,0.5157625,-0.1469875,0.44233748,-6.8348661,109.4553644,31.299999999999997,0.00244016,1.955,0.0
1776413667350,8.566951,4.4940004,-15.900001,18.94541,1.209725,-0.1896125,-0.20047499,-6.8348661,109.4553644,31.299999999999997,0.00244016,1.955,0.0
1776413667353,2.6749501,12.217951,-28.318052,28.554811,1.1457875,0.30525,-0.3122625,-6.8348661,109.4553644,31.299999999999997,0.00244016,1.955,0.0
1776413667356,-7.5840006,19.48995,-27.738,33.50186,1.1457875,0.30525,-0.3122625,-6.8348661,109.4553644,31.299999999999997,0.00244016,1.955,0.0
1776413667362,-6.4350004,17.76,-33.850952,37.712257,0.6870875,0.0158125,-0.106837496,-6.8348661,109.4553644,31.299999999999997,0.00244016,1.955,0.0
1776413667367,16.734001,10.98495,-32.13105,37.8275,0.2519,-0.456775,0.4252875,-6.8348661,109.4553644,31.299999999999997,0.00244016,1.955,0.0
1776413667371,19.728,12.26895,1.8460501,26.209602,-0.9145125,-0.7206375,0.337975,-6.8348661,109.4553644,31.299999999999997,0.00244016,1.955,0.0
1776413667388,-3.2659502,1.43805,34.78995,33.21991,-0.0482625,0.199925,-0.3612125,-6.8348661,109.4553644,31.299999999999997,0.00244016,1.955,0.0
1776413667389,-5.39505,-4.38105,67.093956,60.606335,-0.0482625,0.199925,-0.3612125,-6.8348661,109.4553644,31.299999999999997,0.00244016,1.955,0.0
1776413667392,-17.71005,3.92895,43.105053,49.53466,-0.0482625,0.199925,-0.3612125,-6.8348661,109.4553644,31.299999999999997,0.00244016,1.955,0.0
1776413667399,-10.19505,16.71405,-19.212002,31.850853,-0.0482625,0.199925,-0.3612125,-6.8348661,109.4553644,31.299999999999997,0.00244016,1.955,0.0
1776413667401,5.7340503,29.551052,-56.353954,57.482044,3.14435,-0.561,0.403975,-6.8348661,109.4553644,31.299999999999997,0.00244016,1.955,0.0
1776413667406,6.7540503,20.521952,-61.614002,63.73006,1.569425,-1.028225,0.141075,-6.8348661,109.4553644,31.299999999999997,0.00244016,1.955,0.0
1776413667410,7.9230003,2.25705,-2.1430502,19.55593,-2.6981626,0.7500625,0.4103,-6.8348661,109.4553644,31.299999999999997,0.00244016,1.955,0.0
1776413667420,-6.3120003,-7.326,57.897003,50.8704,0.505175,-0.05555,0.5806625,-6.8348661,109.4553644,31.299999999999997,0.00244016,1.955,0.0
1776413667423,4.30095,-13.75695,43.797,47.06032,0.505175,-0.05555,0.5806625,-6.8348661,109.4553644,31.299999999999997,0.00244016,1.955,0.0
1776413667429,23.263052,-5.013,-17.826,33.198666,2.599575,-0.6972625,0.10065,-6.8348661,109.4553644,31.299999999999997,0.00244016,1.955,0.0
1776413667433,10.18395,11.02305,-52.660954,50.445824,2.093025,0.1871375,-0.4921125,-6.8348661,109.4553644,31.299999999999997,0.00244016,1.955,0.0
1776413667439,-9.394951,20.20605,-46.846054,51.589832,0.504075,0.47341248,-0.7101875,-6.8348661,109.4553644,31.299999999999997,0.00244016,1.955,0.0
1776413667444,-24.81405,13.62705,-5.355,33.367264,-1.7127,0.771375,-0.3845875,-6.8348661,109.4553644,31.299999999999997,0.00244016,1.955,0.0
1776413667451,-23.31495,-4.2460504,46.329002,48.304153,-1.26995,-0.3939375,1.074425,-6.8348661,109.4553644,31.299999999999997,0.00244016,1.955,0.0
1776413667453,5.6860504,-19.85205,71.556,69.241745,-1.26995,-0.3939375,1.074425,-6.8348661,109.4553644,31.299999999999997,0.00244016,1.955,0.0
1776413667462,19.29195,-11.788051,48.999,57.019005,1.3948,-0.603625,0.4774,-6.8348661,109.4553644,31.299999999999997,0.00244016,1.955,0.0
1776413667464,13.242001,4.33395,-5.7070503,23.449158,3.2828126,-0.0405625,-0.0163625,-6.8348661,109.4553644,31.299999999999997,0.00244016,1.955,0.0
1776413667467,1.5810001,26.881052,-53.58105,52.66329,3.3274999,-0.3301375,-0.660275,-6.8348661,109.4553644,31.299999999999997,0.00244016,1.955,0.0
1776413667472,-8.379001,35.68005,-78.420006,79.78223,2.29625,-0.371525,-0.4409625,-6.8348661,109.4553644,31.299999999999997,0.00244016,1.955,0.0
1776413667486,0.39000002,35.107952,-70.209,78.7553,-0.0290125,0.0881375,0.421025,-6.8348661,109.4553644,31.299999999999997,0.00244016,1.955,0.0
1776413667486,9.658951,16.20795,-21.94005,38.900784,-0.0290125,0.0881375,0.421025,-6.8348661,109.4553644,31.299999999999997,0.00244016,1.955,0.0
1776413667489,11.877001,-5.88,58.735054,55.949486,-4.859525,0.10725,0.3689125,-6.8348661,109.4553644,31.299999999999997,0.00244016,1.955,0.0
1776413667490,9.70905,-20.632952,78.537,76.614265,-3.7772624,0.231825,0.3454,-6.8348661,109.4553644,31.299999999999997,0.00244016,1.955,0.0
1776413667498,11.709001,-10.6390505,34.76805,45.881466,2.52505,-0.3663,-0.348425,-6.8348661,109.4553644,31.299999999999997,0.00244016,1.955,0.0
1776413667502,7.386,10.924951,-57.472954,56.34949,4.5034,-0.1150875,-0.837925,-6.8348661,109.4553644,31.299999999999997,0.00244016,1.955,0.0
1776413667506,-13.63605,42.705,-75.01605,81.18215,2.2143,0.4393125,-1.134925,-6.8348661,109.4553644,31.299999999999997,0.00244016,1.955,0.0
1776413667523,-36.94905,42.45795,-45.625053,74.199486,-0.7645,0.936375,-0.78375,-6.8348661,109.4553644,31.299999999999997,0.00244016,1.955,0.0
1776413667523,-27.573002,27.103052,30.310951,54.142616,-0.7645,0.936375,-0.78375,-6.8348661,109.4553644,31.299999999999997,0.00244016,1.955,0.0
1776413667528,11.247001,-24.313951,70.00395,70.792336,-4.272125,-1.2144,1.47565,-6.8348661,109.4553644,31.299999999999997,0.00244016,1.955,0.0
1776413667528,35.188053,-37.884003,78.12795,89.10858,-4.272125,-1.2144,1.47565,-6.8348661,109.4553644,31.299999999999997,0.00244016,1.955,0.0
1776413667530,13.692,-3.39105,40.76295,52.329346,3.7467375,0.6351125,-0.3749625,-6.8348661,109.4553644,31.299999999999997,0.00244016,1.955,0.0
1776413667538,-13.45005,34.581,-51.555004,61.281097,5.4399123,0.15413749,-1.0209374,-6.8348661,109.4553644,31.299999999999997,0.00244016,1.955,0.0
1776413667539,-18.14895,53.410053,-78.08401,89.31882,2.26215,-0.5269,-0.61875,-6.8348661,109.4553644,31.299999999999997,0.00244016,1.955,0.0
1776413667560,-5.517,29.998951,-61.947002,73.1032,-1.5530624,-0.275825,0.68282497,-6.8348661,109.4553644,31.299999999999997,0.00244016,1.955,0.0
1776413667561,21.334951,-3.82995,0.89805007,31.97631,-1.5530624,-0.275825,0.68282497,-6.8348661,109.4553644,31.299999999999997,0.00244016,1.955,0.0
1776413667561,26.48595,-28.73805,63.930004,66.338844,-1.5530624,-0.275825,0.68282497,-6.8348661,109.4553644,31.299999999999997,0.00244016,1.955,0.0
1776413667563,3.6360002,-20.48505,76.44601,76.64903,-0.5984,0.4819375,-0.660275,-6.8348661,109.4553644,31.299999999999997,0.00244016,1.955,0.0
1776413667567,-15.05895,1.8600001,27.913952,40.746906,2.8890126,0.4574625,-0.9337625,-6.8348661,109.4553644,31.299999999999997,0.00244016,1.955,0.0
1776413667570,-21.921001,39.29895,-4.8109503,44.35398,2.8144875,0.53515,-0.6452875,-6.8348661,109.4553644,31.299999999999997,0.00244016,1.955,0.0
1776413667575,-29.239952,41.799004,-33.04095,57.492344,1.5373875,-0.3928375,-0.330275,-6.8348661,109.4553644,31.299999999999997,0.00244016,1.955,0.0
1776413667586,-1.33305,19.600052,-24.96705,36.913963,-1.1570625,-1.3825625,0.8679,-6.8348661,109.4553644,31.299999999999997,0.00244016,1.955,0.0
1776413667587,33.04605,-5.29995,-3.1030502,34.272312,-1.1570625,-1.3825625,0.8679,-6.8348661,109.4553644,31.299999999999997,0.00244016,1.955,0.0
1776413667590,29.976002,-7.563,15.967051,34.690628,-0.736725,0.087037496,0.3146,-6.8348661,109.4553644,31.299999999999997,0.00244016,1.955,0.0
1776413667597,7.0339503,6.5830503,12.801001,19.755081,0.7723375,0.616,-0.61875,-6.8348661,109.4553644,31.299999999999997,0.00244016,1.955,0.0
1776413667602,-6.7909503,24.445051,-4.9279504,24.626987,1.0808874,0.5724125,-0.6358,-6.8348661,109.4553644,31.299999999999997,0.00244016,1.955,0.0
1776413667607,-13.071001,27.927002,-33.100952,41.115486,0.962775,0.1254,-0.4037,-6.8348661,109.4553644,31.299999999999997,0.00244016,1.955,0.0
1776413667610,-6.0870004,21.601952,-33.343052,40.377277,-0.5016,-0.0055,0.1772375,-6.8348661,109.4553644,31.299999999999997,0.00244016,1.955,0.0
1776413667621,4.84305,6.7860003,-13.783051,20.962097,-1.5423375,-0.08745,0.452925,-6.8348661,109.4553644,31.299999999999997,0.00244016,1.955,0.0
1776413667627,9.35505,1.50495,16.377,19.328876,-1.8445625,-0.15125,0.2283875,-6.8348661,109.4553644,31.299999999999997,0.00244016,1.955,0.0
1776413667631,9.283051,3.6060002,27.777,27.47242,0.5402375,0.183975,0.1698125,-6.8348661,109.4553644,31.299999999999997,0.00244016,1.955,0.0
1776413667636,16.53495,6.7939506,7.69995,21.065773,0.5402375,0.183975,0.1698125,-6.8348661,109.4553644,31.299999999999997,0.00244016,1.955,0.0
1776413667641,7.9920006,20.02395,-4.9360504,21.90736,0.3295875,0.330825,-0.5165875,-6.8348661,109.4553644,31.299999999999997,0.00244016,1.955,0.0
1776413667645,-12.154051,24.141,-7.8430505,26.895784,0.121,0.6532625,-0.4580125,-6.8348661,109.4553644,31.299999999999997,0.00244016,1.955,0.0
1776413667651,-11.847,18.136051,-2.4540002,22.820072,-0.345125,0.444675,0.0144375,-6.8348661,109.4553644,31.299999999999997,0.00244016,1.955,0.0
1776413667657,-9.864,12.151051,-1.434,17.137075,-0.81014997,-0.3108875,-0.069575,-6.8348661,109.4553644,31.299999999999997,0.00244016,1.955,0.0
1776413667672,-4.5019503,-2.21295,4.668,8.909308,-1.0177749,-0.0820875,0.340175,-6.8348661,109.4553644,31.299999999999997,0.00244016,1.955,0.0
1776413667672,2.01405,-6.6319504,34.902,30.2487,0.3221625,-0.274725,0.3815625,-6.8348661,109.4553644,31.299999999999997,0.00244016,1.955,0.0
1776413667673,-15.283951,-4.5529504,60.28905,55.93985,0.3221625,-0.274725,0.3815625,-6.8348661,109.4553644,31.299999999999997,0.00244016,1.955,0.0
1776413667677,-6.64305,-4.9339504,51.399002,52.836643,0.3221625,-0.274725,0.3815625,-6.8348661,109.4553644,31.299999999999997,0.00244016,1.955,0.0
1776413667681,7.1779504,8.71695,25.554,32.91749,1.7300249,-0.143825,0.1634875,-6.8348661,109.4553644,31.299999999999997,0.00244016,1.955,0.0
1776413667688,-12.561001,29.188951,-9.25905,33.06221,2.1429374,-0.28325,-0.5346,-6.8348661,109.4553644,31.299999999999997,0.00244016,1.955,0.0
1776413667693,-5.06895,32.394,-22.108051,38.24869,0.88825,-0.618475,0.2261875,-6.8348661,109.4553644,31.299999999999997,0.00244016,1.955,0.0
1776413667708,12.757951,22.02795,-9.844951,29.4843,0.6169625,0.3095125,-0.143,-6.8348661,109.4553644,31.299999999999997,0.00244016,1.955,0.0
1776413667708,14.38395,15.421051,6.8230505,23.628386,0.6169625,0.3095125,-0.143,-6.8348661,109.4553644,31.299999999999997,0.00244016,1.955,0.0
1776413667708,21.538052,19.01505,16.51605,31.23744,0.6169625,0.3095125,-0.143,-6.8348661,109.4553644,31.299999999999997,0.00244016,1.955,0.0
1776413667712,14.727,21.826952,6.3300004,27.91212,0.6169625,0.3095125,-0.143,-6.8348661,109.4553644,31.299999999999997,0.00244016,1.955,0.0
1776413667716,4.1860504,24.411001,-2.7610502,25.519018,0.5913875,0.232925,-0.3048375,-6.8348661,109.4553644,31.299999999999997,0.00244016,1.955,0.0
1776413667721,-1.5460501,16.702051,-12.597,21.88538,0.553025,0.5286875,-0.1782,-6.8348661,109.4553644,31.299999999999997,0.00244016,1.955,0.0
1776413667727,-2.22195,5.75895,-21.018002,21.901623,-0.061049998,-0.240625,-0.2047375,-6.8348661,109.4553644,31.299999999999997,0.00244016,1.955,0.0
1776413667740,-1.422,-5.75505,-10.446,13.98904,-0.58134997,0.0966625,-0.1216875,-6.8348661,109.4553644,31.299999999999997,0.00244016,1.955,0.0
1776413667741,-13.576051,-14.31,3.0649502,18.767363,-0.5856125,0.0743875,-0.038775,-6.8348661,109.4553644,31.299999999999997,0.00244016,1.955,0.0
1776413667747,-17.74905,-3.8080502,31.767002,33.02377,-0.5856125,0.0743875,-0.038775,-6.8348661,109.4553644,31.299999999999997,0.00244016,1.955,0.0
1776413667753,-24.840002,-0.22305001,38.832,43.482933,0.325325,0.246675,0.1230625,-6.8348661,109.4553644,31.299999999999997,0.00244016,1.955,0.0
1776413667758,-9.15795,1.9339501,36.99105,39.222076,0.9362375,-0.848375,0.6210875,-6.8348661,109.4553644,31.299999999999997,0.00244016,1.955,0.0
1776413667762,10.155001,-4.36095,23.650051,28.728352,0.9362375,-0.848375,0.6210875,-6.8348661,109.4553644,31.299999999999997,0.00244016,1.955,0.0
1776413667774,12.198001,-5.5350003,7.7910004,18.1425,1.8503375,0.014712499,-0.16115,-6.8348661,109.4553644,31.299999999999997,0.00244016,1.955,0.0
1776413667774,5.40495,2.3080502,-1.5010501,8.481127,1.8503375,0.014712499,-0.16115,-6.8348661,109.4553644,31.299999999999997,0.00244016,1.955,0.0
1776413667777,-8.547,17.128052,-11.107051,19.40115,1.8503375,0.014712499,-0.16115,-6.8348661,109.4553644,31.299999999999997,0.00244016,1.955,0.0
1776413667783,-9.77295,20.239052,-25.281002,30.941748,1.5981625,0.115775,0.5157625,-6.8348661,109.4553644,31.299999999999997,0.00244016,1.955,0.0
1776413667788,10.758,17.313002,-37.731003,40.496162,1.0649375,-0.9068125,0.8999375,-6.8348661,109.4553644,31.299999999999997,0.00244016,1.955,0.0
1776413667788,29.692951,7.79505,-55.62105,58.923702,0.5253875,-1.2826,0.8424625,-6.8348661,109.4553644,31.299999999999997,0.00244016,1.955,0.0
1776413667793,33.682953,4.638,-39.661053,53.577,-0.23333749,0.4967875,0.551925,-6.8348661,109.4553644,31.299999999999997,0.00244016,1.955,0.0
1776413667809,12.150001,5.4739504,-14.808001,26.652548,-0.2993375,-0.324775,-0.2611125,-6.8348661,109.4553644,31.299999999999997,0.00244016,1.955,0.0
1776413667809,-25.422,7.1740503,10.19505,27.981731,-0.2993375,-0.324775,-0.2611125,-6.8348661,109.4553644,31.299999999999997,0.00244016,1.955,0.0
1776413667809,-25.45305,4.176,10.486951,27.871325,-0.2993375,-0.324775,-0.2611125,-6.8348661,109.4553644,31.299999999999997,0.00244016,1.955,0.0
1776413667813,9.673051,5.20305,-15.082951,20.500967,1.046925,-0.797225,0.6029375,-6.8348661,109.4553644,31.299999999999997,0.00244016,1.955,0.0
1776413667818,26.854952,11.18595,-42.300003,45.1707,1.046925,-0.797225,0.6029375,-6.8348661,109.4553644,31.299999999999997,0.00244016,1.955,0.0
1776413667822,30.711002,19.000952,-38.959053,51.532215,-0.410025,-0.603625,0.10065,-6.8348661,109.4553644,31.299999999999997,0.00244016,1.955,0.0
1776413667829,10.02105,12.304951,4.68405,23.543327,-2.2127874,1.6344625,-0.7676625,-6.8348661,109.4553644,31.299999999999997,0.00244016,1.955,0.0
1776413667842,-34.641003,11.490001,59.820004,60.768356,0.4126375,0.021175,0.0411125,-6.8348661,109.4553644,31.299999999999997,0.00244016,1.955,0.0
1776413667842,-28.822952,9.8880005,48.388954,57.900986,0.4126375,0.021175,0.0411125,-6.8348661,109.4553644,31.299999999999997,0.00244016,1.955,0.0
1776413667843,9.204,24.157951,-16.161001,35.970337,0.4126375,0.021175,0.0411125,-6.8348661,109.4553644,31.299999999999997,0.00244016,1.955,0.0
1776413667848,24.396002,16.22805,-75.48106,71.9689,1.9003875,-1.2431375,0.7073,-6.8348661,109.4553644,31.299999999999997,0.00244016,1.955,0.0
1776413667853,34.821003,10.666051,-63.003002,72.610725,-0.92193747,-0.2684,0.5369375,-6.8348661,109.4553644,31.299999999999997,0.00244016,1.955,0.0
1776413667863,13.620001,6.135,-5.0070004,27.12596,-2.9874625,2.209075,-0.707025,-6.8348661,109.4553644,31.299999999999997,0.00244016,1.955,0.0
1776413667864,-37.49295,-5.66895,55.957054,59.50099,-3.7059,1.408825,-1.40415,-6.8348661,109.4553644,31.299999999999997,0.00244016,1.955,0.0
1776413667868,-36.736053,-23.268002,78.537,83.717735,-2.4916375,0.393525,-0.26015,-6.8348661,109.4553644,31.299999999999997,0.00244016,1.955,0.0
1776413667873,0.82095003,-16.80105,47.440052,57.01072,-2.4916375,0.393525,-0.26015,-6.8348661,109.4553644,31.299999999999997,0.00244016,1.955,0.0
1776413667889,14.170951,-6.19605,-21.55005,32.622684,3.3881376,0.1265,0.6837875,-6.8348661,109.4553644,31.299999999999997,0.00244016,1.955,0.0
1776413667901,7.8940506,12.42195,-42.63795,42.60991,1.3299,0.10945,-0.199375,-6.8348661,109.4553644,31.299999999999997,0.00244016,1.955,0.0
1776413667902,-12.178051,17.39895,-19.71495,31.704151,1.3299,0.10945,-0.199375,-6.8348661,109.4553644,31.299999999999997,0.00244016,1.955,0.0
1776413667905,-33.77595,8.688001,29.743052,43.00969,1.438525,-0.0598125,0.2017125,-6.8348661,109.4553644,31.299999999999997,0.00244016,1.955,0.0
1776413667905,-19.344002,8.832001,54.83805,55.65531,1.438525,-0.0598125,0.2017125,-6.8348661,109.4553644,31.299999999999997,0.00244016,1.955,0.0
1776413667905,12.05895,6.8629503,29.88495,37.490166,1.438525,-0.0598125,0.2017125,-6.8348661,109.4553644,31.299999999999997,0.00244016,1.955,0.0
1776413667905,28.62795,4.9279504,-5.86005,31.205376,1.438525,-0.0598125,0.2017125,-6.8348661,109.4553644,31.299999999999997,0.00244016,1.955,0.0
1776413667905,26.412,17.847,-20.793001,36.687965,1.438525,-0.0598125,0.2017125,-6.8348661,109.4553644,31.299999999999997,0.00244016,1.955,0.0
1776413667909,3.8509502,25.333952,-48.043053,50.897385,-0.45045,0.50325,-0.3697375,-6.8348661,109.4553644,31.299999999999997,0.00244016,1.955,0.0
1776413667920,-8.776951,29.890951,-36.31995,48.459644,-0.45045,0.50325,-0.3697375,-6.8348661,109.4553644,31.299999999999997,0.00244016,1.955,0.0
1776413667921,-19.45605,16.788,12.624001,32.596813,-2.1638374,1.08845,0.091025,-6.8348661,109.4553644,31.299999999999997,0.00244016,1.955,0.0
1776413667925,-9.184051,-7.3740005,39.607952,39.57701,-2.2958374,-0.3427875,0.6540875,-6.8348661,109.4553644,31.299999999999997,0.00244016,1.955,0.0
1776413667930,21.694052,-17.15295,34.629,43.369244,-0.38555,-0.0991375,0.98285,-6.8348661,109.4553644,31.299999999999997,0.00244016,1.955,0.0
1776413667935,14.21895,-2.079,-6.08505,21.158173,1.8460749,0.14135,-0.09515,-6.8348661,109.4553644,31.299999999999997,0.00244016,1.955,0.0
1776413667939,1.5090001,17.413052,-37.968002,37.66992,1.3448875,0.2222,-0.4442625,-6.8348661,109.4553644,31.299999999999997,0.00244016,1.955,0.0
1776413667944,-12.159,31.707,-10.777051,36.036,-0.65587497,0.7767375,-0.512325,-6.8348661,109.4553644,31.299999999999997,0.00244016,1.955,0.0
1776413667954,-32.662052,21.633001,33.108,48.24132,-1.9105625,0.8320125,-0.0334125,-6.8348661,109.4553644,31.299999999999997,0.00244016,1.955,0.0
1776413667960,-7.32495,2.1070502,55.471054,54.44207,2.2239249,-0.1662375,0.2517625,-6.8348661,109.4553644,31.299999999999997,0.00244016,1.955,0.0
1776413667961,33.091953,-7.6780505,21.025951,42.849594,2.2239249,-0.1662375,0.2517625,-6.8348661,109.4553644,31.299999999999997,0.00244016,1.955,0.0
1776413667965,31.771952,15.640951,-16.18695,39.719765,2.2239249,-0.1662375,0.2517625,-6.8348661,109.4553644,31.299999999999997,0.00244016,1.955,0.0
1776413667969,8.562,36.822002,-50.953053,58.70067,0.46695,0.45319998,-0.3601125,-6.8348661,109.4553644,31.299999999999997,0.00244016,1.955,0.0
1776413667974,-2.5830002,42.814953,-62.596054,72.445625,0.46695,0.45319998,-0.3601125,-6.8348661,109.4553644,31.299999999999997,0.00244016,1.955,0.0
1776413667978,1.26405,33.81705,-44.857952,59.44191,-1.374175,0.623425,0.352825,-6.8348661,109.4553644,31.299999999999997,0.00244016,1.955,0.0
1776413667989,18.739052,14.877001,-15.640951,34.756584,-2.5448499,0.5713125,0.6923125,-6.8348661,109.4553644,31.299999999999997,0.00244016,1.955,0.0
1776413667989,31.204952,0.957,3.08205,32.048424,-1.651925,0.86817497,-0.46873748,-6.8348661,109.4553644,31.299999999999997,0.00244016,1.955,0.0
1776413667996,21.109951,-8.031,12.436951,27.036732,-1.651925,0.86817497,-0.46873748,-6.8348661,109.4553644,31.299999999999997,0.00244016,1.955,0.0
1776413668000,-5.874,1.45305,17.90505,20.527262,-0.6653625,1.5280375,-1.1583,-6.8348661,109.4553644,31.299999999999997,0.00244016,1.955,0.0
1776413668004,-34.807953,11.365951,22.932001,38.669296,-0.654775,1.4322,-1.11045,-6.8348661,109.4553644,31.299999999999997,0.00244016,1.955,0.0
1776413668008,-43.73505,6.741,31.825052,51.339584,-1.062325,0.576675,-0.71665,-6.8348661,109.4553644,31.299999999999997,0.00244016,1.955,0.0
1776413668023,-31.768951,3.5119503,50.335953,57.969044,-1.7051375,-0.6716875,0.00495,-6.8348661,109.4553644,31.299999999999997,0.00244016,1.955,0.0
1776413668024,-14.500951,-16.726952,60.840004,63.387703,-0.6260375,-0.51094997,0.7041375,-6.8348661,109.4553644,31.299999999999997,0.00244016,1.955,0.0
1776413668025,7.2690005,-20.310001,72.10606,72.888466,-0.6260375,-0.51094997,0.7041375,-6.8348661,109.4553644,31.299999999999997,0.00244016,1.955,0.0
1776413668030,2.7450001,-3.4750502,44.892002,50.66561,1.93875,-0.8036875,-4.125E-4,-6.8348661,109.4553644,31.299999999999997,0.00244016,1.955,0.0
1776413668036,4.0069504,7.8790503,-22.441051,29.428486,3.6595626,-0.176825,0.258225,-6.8348661,109.4553644,31.299999999999997,0.00244016,1.955,0.0
1776413668040,0.63495004,37.44495,-34.354053,46.54214,2.1707125,-0.1076625,-0.0792,-6.8348661,109.4553644,31.299999999999997,0.00244016,1.955,0.0
1776413668044,-13.725,38.092052,-53.20695,62.797028,1.4524125,0.051975,0.141075,-6.8348661,109.4553644,31.299999999999997,0.00244016,1.955,0.0
1776413668056,9.915001,24.136051,-33.13005,46.296806,-0.916575,-0.31515,1.0679625,-6.8348661,109.4553644,31.299999999999997,0.00244016,1.955,0.0
1776413668056,27.126001,4.81995,2.87805,31.420012,-2.0510874,-0.0374,0.878625,-6.8348661,109.4553644,31.299999999999997,0.00244016,1.955,0.0
1776413668060,14.266951,-11.53905,34.591053,37.609253,-1.6285499,0.76285,0.257125,-6.8348661,109.4553644,31.299999999999997,0.00244016,1.955,0.0
1776413668067,9.09105,-8.80395,33.34095,36.051422,0.26895,0.410575,-0.135575,-6.8348661,109.4553644,31.299999999999997,0.00244016,1.955,0.0
1776413668069,-2.36295,14.791051,15.904951,24.688522,1.6471125,0.6351125,-0.560175,-6.8348661,109.4553644,31.299999999999997,0.00244016,1.955,0.0
1776413668074,-23.206951,22.773,-20.230051,35.572872,1.8737125,0.3733125,-0.5570125,-6.8348661,109.4553644,31.299999999999997,0.00244016,1.955,0.0
1776413668079,-7.7850003,13.476001,-7.2990003,20.866299,-0.54202497,-0.176825,0.306075,-6.8348661,109.4553644,31.299999999999997,0.00244016,1.955,0.0
1776413668090,-2.7510002,1.6680001,27.949951,26.680859,-0.2429625,0.2244,0.4774,-6.8348661,109.4553644,31.299999999999997,0.00244016,1.955,0.0
1776413668098,-7.9890003,-14.725051,36.72195,37.626385,-0.2429625,0.2244,0.4774,-6.8348661,109.4553644,31.299999999999997,0.00244016,1.955,0.0
1776413668098,15.000001,-5.26905,27.466051,32.913742,-0.2429625,0.2244,0.4774,-6.8348661,109.4553644,31.299999999999997,0.00244016,1.955,0.0
1776413668105,6.2370005,19.779001,-17.70795,28.399153,3.01675,-0.128975,-0.3537875,-6.8348661,109.4553644,31.299999999999997,0.00244016,1.955,0.0
1776413668107,-3.7090502,41.481003,-51.259953,58.516266,2.747525,0.0253,-0.0419375,-6.8348661,109.4553644,31.299999999999997,0.00244016,1.955,0.0
1776413668116,11.788051,41.569054,-51.981003,65.77857,0.685025,-0.373725,0.615725,-6.8348661,109.4553644,31.299999999999997,0.00244016,1.955,0.0
1776413668120,22.216051,25.543951,-25.27395,46.95341,-1.5136,-0.0066,0.5636125,-6.8348661,109.4553644,31.299999999999997,0.00244016,1.955,0.0
1776413668129,23.869051,1.5169501,-7.3039503,29.396769,-1.866975,0.117975,0.1166,-6.8348661,109.4553644,31.299999999999997,0.00244016,1.955,0.0
1776413668138,26.628002,0.24300002,3.7140002,27.388844,-0.8485125,-0.0501875,-0.184525,-6.8348661,109.4553644,31.299999999999997,0.00244016,1.955,0.0
1776413668139,9.85995,3.357,-24.999,27.143417,0.375375,0.704275,-0.4027375,-6.8348661,109.4553644,31.299999999999997,0.00244016,1.955,0.0
1776413668143,-2.70495,18.318,-37.57695,38.94184,0.422125,0.478775,-0.8369625,-6.8348661,109.4553644,31.299999999999997,0.00244016,1.955,0.0
1776413668147,-16.97505,13.878,-28.456951,36.52774,-0.8377875,1.017225,-0.7624375,-6.8348661,109.4553644,31.299999999999997,0.00244016,1.955,0.0
1776413668150,-25.29795,5.06895,23.215052,35.071648,-2.8331876,0.4819375,-0.3760625,-6.8348661,109.4553644,31.299999999999997,0.00244016,1.955,0.0
1776413668158,-23.980051,-14.0779505,67.120056,65.13604,-2.4000626,0.1689875,0.18259999,-6.8348661,109.4553644,31.299999999999997,0.00244016,1.955,0.0
1776413668164,2.8620002,-27.27,64.50705,69.10147,-0.7079875,-0.832425,0.52745,-6.8348661,109.4553644,31.299999999999997,0.00244016,1.955,0.0
1776413668172,9.778951,-13.43805,36.687,46.040985,-0.7079875,-0.832425,0.52745,-6.8348661,109.4553644,31.299999999999997,0.00244016,1.955,0.0
1776413668172,-6.1210504,2.16195,0.87405,14.448366,-0.7079875,-0.832425,0.52745,-6.8348661,109.4553644,31.299999999999997,0.00244016,1.955,0.0
1776413668175,-12.25695,25.269001,-7.05705,26.055954,1.4683625,-0.080025,-0.48894998,-6.8348661,109.4553644,31.299999999999997,0.00244016,1.955,0.0
1776413668182,-17.344051,32.61705,-17.212051,37.814922,0.9340375,-0.2981,-0.0154,-6.8348661,109.4553644,31.299999999999997,0.00244016,1.955,0.0
1776413668187,3.24795,7.54995,-28.512001,31.301361,0.1645875,-0.6259,1.057375,-6.8348661,109.4553644,31.299999999999997,0.00244016,1.955,0.0
1776413668191,32.25795,-0.333,-9.217951,33.100918,-0.965525,-0.7280625,0.8636375,-6.8348661,109.4553644,31.299999999999997,0.00244016,1.955,0.0
1776413668206,16.188002,5.2849503,-0.201,20.24422,0.933075,0.6798,-0.1973125,-6.8348661,109.4553644,31.299999999999997,0.00244016,1.955,0.0
1776413668207,0.81900007,16.82205,-11.3880005,20.31343,0.0347875,0.4393125,-0.1461625,-6.8348661,109.4553644,31.299999999999997,0.00244016,1.955,0.0
1776413668208,2.22195,21.957,-15.616951,25.691353,0.0347875,0.4393125,-0.1461625,-6.8348661,109.4553644,31.299999999999997,0.00244016,1.955,0.0
1776413668215,-9.427951,16.470001,2.943,20.50178,0.0347875,0.4393125,-0.1461625,-6.8348661,109.4553644,31.299999999999997,0.00244016,1.955,0.0
1776413668217,-5.9989505,0.46395,26.376001,25.743217,-1.065625,0.41593748,-0.1665125,-6.8348661,109.4553644,31.299999999999997,0.00244016,1.955,0.0
1776413668222,10.75395,-6.9310503,22.31595,25.72729,-0.0705375,-0.1705,0.3411375,-6.8348661,109.4553644,31.299999999999997,0.00244016,1.955,0.0
1776413668226,3.4339502,1.7209501,0.36600003,8.232218,0.6637125,0.8437,-0.3612125,-6.8348661,109.4553644,31.299999999999997,0.00244016,1.955,0.0
1776413668230,-12.73095,14.380951,3.8530502,17.317764,0.6637125,0.8437,-0.3612125,-6.8348661,109.4553644,31.299999999999997,0.00244016,1.955,0.0
1776413668242,-27.645,21.71895,21.454052,36.411854,0.211475,-0.57805,0.520025,-6.8348661,109.4553644,31.299999999999997,0.00244016,1.955,0.0
1776413668243,-17.820002,18.60795,13.452001,30.534239,0.211475,-0.57805,0.520025,-6.8348661,109.4553644,31.299999999999997,0.00244016,1.955,0.0
1776413668247,19.96005,5.8500004,-15.886051,27.04474,0.8426,-0.9494375,1.370325,-6.8348661,109.4553644,31.299999999999997,0.00244016,1.955,0.0
1776413668251,39.967953,5.9290504,-37.920002,49.738747,0.75955,-1.4092375,0.8041,-6.8348661,109.4553644,31.299999999999997,0.00244016,1.955,0.0
1776413668257,38.658,11.823001,-35.764053,53.127686,0.3509,0.295625,0.2135375,-6.8348661,109.4553644,31.299999999999997,0.00244016,1.955,0.0
1776413668262,18.430052,16.25205,-12.115951,32.543087,-0.703725,1.704725,-0.7390625,-6.8348661,109.4553644,31.299999999999997,0.00244016,1.955,0.0
1776413668277,-17.68905,17.698051,13.930951,29.419855,-1.3369125,1.312025,-1.3157375,-6.8348661,109.4553644,31.299999999999997,0.00244016,1.955,0.0
1776413668277,-21.01095,8.70495,32.182053,37.409664,-1.3369125,1.312025,-1.3157375,-6.8348661,109.4553644,31.299999999999997,0.00244016,1.955,0.0
1776413668282,0.23205002,1.4790001,3.9150002,10.835118,0.7211875,-0.1480875,0.141075,-6.8348661,109.4553644,31.299999999999997,0.00244016,1.955,0.0
1776413668288,0.582,7.8190503,-25.132952,23.229088,0.7786625,-0.258775,-0.29947498,-6.8348661,109.4553644,31.299999999999997,0.00244016,1.955,0.0
1776413668291,-7.45695,13.51605,-12.669001,20.621666,-0.5281375,0.1137125,-0.333575,-6.8348661,109.4553644,31.299999999999997,0.00244016,1.955,0.0
1776413668297,-11.61705,7.9500003,25.357952,27.326874,-1.3454375,0.7489625,0.0826375,-6.8348661,109.4553644,31.299999999999997,0.00244016,1.955,0.0
1776413668309,-10.99905,-2.2699502,35.85495,35.523552,0.276375,-0.47905,0.4497625,-6.8348661,109.4553644,31.299999999999997,0.00244016,1.955,0.0
1776413668311,11.998951,-7.1899505,17.938051,25.302624,0.276375,-0.47905,0.4497625,-6.8348661,109.4553644,31.299999999999997,0.00244016,1.955,0.0
1776413668317,18.312,4.14195,-6.5140505,20.95856,0.9703375,0.4723125,-0.708125,-6.8348661,109.4553644,31.299999999999997,0.00244016,1.955,0.0
1776413668322,-3.1270502,19.14195,-18.048,25.386776,-0.3047,0.30415,-0.4654375,-6.8348661,109.4553644,31.299999999999997,0.00244016,1.955,0.0
1776413668327,-15.318001,21.834002,-5.34495,26.838726,-0.3047,0.30415,-0.4654375,-6.8348661,109.4553644,31.299999999999997,0.00244016,1.955,0.0
1776413668340,-12.537001,14.299951,19.287,27.036575,-1.0836375,-0.02145,0.0867625,-6.8348661,109.4553644,31.299999999999997,0.00244016,1.955,0.0
1776413668341,2.1670501,0.87795,11.4210005,14.73362,0.4849625,-0.3928375,0.5753,-6.8348661,109.4553644,31.299999999999997,0.00244016,1.955,0.0
1776413668345,23.128952,-3.7549503,-10.588051,23.51707,0.4849625,-0.3928375,0.5753,-6.8348661,109.4553644,31.299999999999997,0.00244016,1.955,0.0
1776413668348,21.28005,12.772051,-21.949951,31.209457,0.6765,-0.047025,-0.1632125,-6.8348661,109.4553644,31.299999999999997,0.00244016,1.955,0.0
1776413668357,0.85995007,27.889051,-13.74705,31.12588,0.07425,1.0758,-0.3026375,-6.8348661,109.4553644,31.299999999999997,0.00244016,1.955,0.0
1776413668357,-5.6470504,14.71905,-1.8510001,18.923922,-0.931425,0.79805,0.0559625,-6.8348661,109.4553644,31.299999999999997,0.00244016,1.955,0.0
1776413668364,8.778001,-2.2110002,15.760951,18.325197,-1.439075,0.3658875,0.1442375,-6.8348661,109.4553644,31.299999999999997,0.00244016,1.955,0.0
1776413668367,-7.59105,0.87795,23.358002,23.326025,-0.5005,0.52442497,-0.610225,-6.8348661,109.4553644,31.299999999999997,0.00244016,1.955,0.0
1776413668378,-24.61305,13.705951,29.650051,37.38492,0.097625,0.41593748,-0.330275,-6.8348661,109.4553644,31.299999999999997,0.00244016,1.955,0.0
1776413668391,-9.88605,15.739051,23.39895,31.382967,0.36795,-0.093775,0.34759998,-6.8348661,109.4553644,31.299999999999997,0.00244016,1.955,0.0
1776413668392,8.050051,12.216001,-7.9270506,19.588173,0.36795,-0.093775,0.34759998,-6.8348661,109.4553644,31.299999999999997,0.00244016,1.955,0.0
1776413668392,21.462002,11.169001,-28.785002,33.999554,0.655325,-0.5152125,0.3337125,-6.8348661,109.4553644,31.299999999999997,0.00244016,1.955,0.0
1776413668399,22.86795,15.80895,-29.00805,38.942924,0.655325,-0.5152125,0.3337125,-6.8348661,109.4553644,31.299999999999997,0.00244016,1.955,0.0
1776413668400,5.31405,17.229,-15.445051,26.781252,-1.2975875,0.5223625,-0.5495875,-6.8348661,109.4553644,31.299999999999997,0.00244016,1.955,0.0
1776413668405,-9.64605,16.80495,12.597,23.845377,-1.2975875,0.5223625,-0.5495875,-6.8348661,109.4553644,31.299999999999997,0.00244016,1.955,0.0
1776413668410,-1.9699501,10.137,28.500002,29.01963,-0.9208375,0.426525,0.0251625,-6.8348661,109.4553644,31.299999999999997,0.00244016,1.955,0.0
1776413668429,6.14295,7.1029506,21.181051,24.339508,0.310475,0.461725,-0.792275,-6.8348661,109.4553644,31.299999999999997,0.00244016,1.955,0.0
1776413668430,3.798,6.5179505,4.677,11.968676,0.310475,0.461725,-0.792275,-6.8348661,109.4553644,31.299999999999997,0.00244016,1.955,0.0
1776413668431,1.815,12.108001,-2.73705,12.430128,0.310475,0.461725,-0.792275,-6.8348661,109.4553644,31.299999999999997,0.00244016,1.955,0.0
1776413668431,-19.00605,15.478051,1.13205,22.115906,0.310475,0.461725,-0.792275,-6.8348661,109.4553644,31.299999999999997,0.00244016,1.955,0.0
1776413668434,-26.61,12.178051,25.758001,35.611607,-0.7090875,0.396825,-0.609125,-6.8348661,109.4553644,31.299999999999997,0.00244016,1.955,0.0
1776413668442,-12.142051,-5.0539503,34.047,36.321445,-0.7090875,0.396825,-0.609125,-6.8348661,109.4553644,31.299999999999997,0.00244016,1.955,0.0
1776413668443,7.281,-4.2319503,32.64405,34.23457,-0.7090875,0.396825,-0.609125,-6.8348661,109.4553644,31.299999999999997,0.00244016,1.955,0.0
1776413668451,8.739,8.226001,8.530951,18.626606,0.8394375,-0.3194125,0.2506625,-6.8348661,109.4553644,31.299999999999997,0.00244016,1.955,0.0
1776413668456,13.776001,17.166,-17.872952,26.407715,1.47895,-0.358875,0.191125,-6.8348661,109.4553644,31.299999999999997,0.00244016,1.955,0.0
1776413668460,16.00605,17.04705,-18.843,29.306253,-0.3047,0.3212,-0.1483625,-6.8348661,109.4553644,31.299999999999997,0.00244016,1.955,0.0
1776413668463,3.0660002,11.253,-8.64795,17.476894,-0.3047,0.3212,-0.1483625,-6.8348661,109.4553644,31.299999999999997,0.00244016,1.955,0.0
1776413668470,4.821,-0.02205,-18.295052,18.631063,0.1731125,0.658625,-0.1557875,-6.8348661,109.4553644,31.299999999999997,0.00244016,1.955,0.0
1776413668475,13.399951,6.12795,-26.09295,27.698898,-0.015125,0.0072875,-0.0408375,-6.8348661,109.4553644,31.299999999999997,0.00244016,1.955,0.0
1776413668481,-5.9149504,13.47105,-20.022001,25.416784,0.277475,0.4074125,-0.5974375,-6.8348661,109.4553644,31.299999999999997,0.00244016,1.955,0.0
1776413668481,-15.928051,21.19305,28.97895,36.5044,-1.6093,0.4745125,-0.1441,-6.8348661,109.4553644,31.299999999999997,0.00244016,1.955,0.0
1776413668493,-16.173,5.3899503,60.879,57.877525,-1.6093,0.4745125,-0.1441,-6.8348661,109.4553644,31.299999999999997,0.00244016,1.955,0.0
1776413668493,0.82605004,-16.91805,66.50896,66.481064,-1.506175,0.0061875,0.36987498,-6.8348661,109.4553644,31.299999999999997,0.00244016,1.955,0.0
1776413668499,8.442,-12.15495,35.079002,43.75454,0.246675,-0.57915,0.19745,-6.8348661,109.4553644,31.299999999999997,0.00244016,1.955,0.0
1776413668506,1.7580001,11.236051,-26.991001,32.18222,3.14875,-0.061875,-0.348425,-6.8348661,109.4553644,31.299999999999997,0.00244016,1.955,0.0
1776413668511,-1.1560501,42.091053,-61.264053,65.90759,3.399825,-0.6887375,-0.5825875,-6.8348661,109.4553644,31.299999999999997,0.00244016,1.955,0.0
1776413668525,4.1460004,33.342003,-68.96595,74.55347,2.0355499,-0.635525,-0.1973125,-6.8348661,109.4553644,31.299999999999997,0.00244016,1.955,0.0
1776413668525,21.045,11.191051,-21.480001,40.579628,2.0355499,-0.635525,-0.1973125,-6.8348661,109.4553644,31.299999999999997,0.00244016,1.955,0.0
1776413668525,26.212952,-11.578051,21.03495,36.55409,2.0355499,-0.635525,-0.1973125,-6.8348661,109.4553644,31.299999999999997,0.00244016,1.955,0.0
1776413668525,16.264051,-12.286051,32.21505,37.808304,2.0355499,-0.635525,-0.1973125,-6.8348661,109.4553644,31.299999999999997,0.00244016,1.955,0.0
1776413668525,6.708,5.7400503,-9.29205,17.81564,2.0355499,-0.635525,-0.1973125,-6.8348661,109.4553644,31.299999999999997,0.00244016,1.955,0.0
1776413668525,-6.3750005,35.50305,-23.00805,37.790398,-2.910875,0.31913748,0.00165,-6.8348661,109.4553644,31.299999999999997,0.00244016,1.955,0.0
1776413668528,-30.424952,32.61,-6.45195,43.608868,0.30621248,0.9725375,-1.3190374,-6.8348661,109.4553644,31.299999999999997,0.00244016,1.955,0.0
1776413668531,-22.62195,5.043,29.238,38.56987,-1.6988125,0.1871375,-0.7049625,-6.8348661,109.4553644,31.299999999999997,0.00244016,1.955,0.0
1776413668539,3.1969502,-17.421001,45.285004,46.614407,-2.4723876,-0.6386875,0.33261248,-6.8348661,109.4553644,31.299999999999997,0.00244016,1.955,0.0
1776413668543,16.00305,-15.939001,25.24995,36.42517,0.8872875,-0.438625,0.1698125,-6.8348661,109.4553644,31.299999999999997,0.00244016,1.955,0.0
1776413668548,10.155001,0.51900005,-7.9480505,17.609837,1.9855,0.117975,-0.5666375,-6.8348661,109.4553644,31.299999999999997,0.00244016,1.955,0.0
1776413668560,-2.3100002,15.628951,-25.401001,27.452682,-0.5259375,1.1066,-0.75075,-6.8348661,109.4553644,31.299999999999997,0.00244016,1.955,0.0
1776413668564,-29.044052,19.618952,9.36705,34.514133,-0.5259375,1.1066,-0.75075,-6.8348661,109.4553644,31.299999999999997,0.00244016,1.955,0.0
1776413668571,-31.33995,6.729,40.966053,48.515823,-1.079375,0.17435,0.2380125,-6.8348661,109.4553644,31.299999999999997,0.00244016,1.955,0.0
1776413668574,13.956,-11.02005,22.60905,32.714546,-0.001375,-1.5763,1.009525,-6.8348661,109.4553644,31.299999999999997,0.00244016,1.955,0.0
1776413668583,38.964,-13.198951,-27.421951,46.09536,1.8451124,-1.224025,0.5454625,-6.8348661,109.4553644,31.299999999999997,0.00244016,1.955,0.0
1776413668587,32.863953,6.4609504,-48.01005,56.04982,1.9397125,-0.3014,-0.2761,-6.8348661,109.4553644,31.299999999999997,0.00244016,1.955,0.0
1776413668594,12.00405,26.55705,-35.32395,47.845734,0.4052125,0.738375,-1.3850375,-6.8348661,109.4553644,31.299999999999997,0.00244016,1.955,0.0
1776413668609,-24.186,31.138952,1.01505,41.1223,-1.49875,1.2843875,-1.674475,-6.8348661,109.4553644,31.299999999999997,0.00244016,1.955,0.0
1776413668610,-30.59295,8.50605,40.107002,49.148613,-0.3812875,-0.6705875,0.4816625,-6.8348661,109.4553644,31.299999999999997,0.00244016,1.955,0.0
1776413668613,7.3309503,-2.4409502,45.96495,47.117603,-0.3812875,-0.6705875,0.4816625,-6.8348661,109.4553644,31.299999999999997,0.00244016,1.955,0.0
1776413668617,16.348051,10.278001,-6.04395,25.610931,2.320725,-0.9334875,-0.218625,-6.8348661,109.4553644,31.299999999999997,0.00244016,1.955,0.0
1776413668624,9.618,26.308052,-39.35205,43.764782,1.7535375,-0.3950375,-0.5974375,-6.8348661,109.4553644,31.299999999999997,0.00244016,1.955,0.0
1776413668628,9.618,26.682001,-30.310951,41.962006,-0.18975,-0.2151875,-0.57722497,-6.8348661,109.4553644,31.299999999999997,0.00244016,1.955,0.0
1776413668646,-6.74805,5.09805,-10.897051,19.427532,-1.307075,0.9565875,-0.5996375,-6.8348661,109.4553644,31.299999999999997,0.00244016,1.955,0.0
1776413668646,-13.45905,6.2040005,25.225952,27.291273,0.17847499,-0.0246125,-0.1238875,-6.8348661,109.4553644,31.299999999999997,0.00244016,1.955,0.0
1776413668649,-5.92395,5.9890504,16.22295,20.081984,0.17847499,-0.0246125,-0.1238875,-6.8348661,109.4553644,31.299999999999997,0.00244016,1.955,0.0
1776413668650,6.9360003,12.729001,0.93105006,15.637135,0.17847499,-0.0246125,-0.1238875,-6.8348661,109.4553644,31.299999999999997,0.00244016,1.955,0.0
1776413668655,9.766951,3.3040502,-2.4139502,11.599017,-0.2737625,-0.0396,-0.1898875,-6.8348661,109.4553644,31.299999999999997,0.00244016,1.955,0.0
1776413668660,6.6250505,-3.2050502,15.14595,15.791277,-0.8399875,0.1615625,-0.560175,-6.8348661,109.4553644,31.299999999999997,0.00244016,1.955,0.0
1776413668665,-17.35095,6.0679502,31.468052,32.312893,-0.260975,0.3510375,-1.0869375,-6.8348661,109.4553644,31.299999999999997,0.00244016,1.955,0.0
1776413668675,-28.509,17.77695,29.743052,42.359608,0.8361375,-0.8185375,0.2134,-6.8348661,109.4553644,31.299999999999997,0.00244016,1.955,0.0
1776413668675,-6.42495,16.503,3.4150503,22.900597,0.8361375,-0.8185375,0.2134,-6.8348661,109.4553644,31.299999999999997,0.00244016,1.955,0.0
1776413668680,13.11495,15.753001,-2.46105,21.096115,0.33495,-0.3843125,0.0506,-6.8348661,109.4553644,31.299999999999997,0.00244016,1.955,0.0
1776413668685,12.6,10.695001,-6.6000004,18.456146,0.3051125,-0.31625,0.0218625,-6.8348661,109.4553644,31.299999999999997,0.00244016,1.955,0.0
1776413668690,14.515951,11.560051,-6.9619503,19.546906,0.3051125,0.0083875,-0.1632125,-6.8348661,109.4553644,31.299999999999997,0.00244016,1.955,0.0
1776413668695,4.25595,16.18905,-13.531051,21.12868,0.2880625,-0.1013375,-0.626175,-6.8348661,109.4553644,31.299999999999997,0.00244016,1.955,0.0
1776413668709,-1.0699501,20.90295,-12.172951,23.595963,0.1892,0.19139999,-0.3793625,-6.8348661,109.4553644,31.299999999999997,0.00244016,1.955,0.0
1776413668710,3.1300502,12.345,-21.23595,24.528877,-1.3656499,-0.0075625,-0.42295,-6.8348661,109.4553644,31.299999999999997,0.00244016,1.955,0.0
1776413668710,5.1280503,13.533001,9.655951,18.823853,-1.3656499,-0.0075625,-0.42295,-6.8348661,109.4553644,31.299999999999997,0.00244016,1.955,0.0
1776413668715,-12.229951,19.390951,46.048954,44.916874,-1.0165375,0.19139999,-0.58685,-6.8348661,109.4553644,31.299999999999997,0.00244016,1.955,0.0
1776413668720,-10.765051,-1.8900001,45.958054,46.775238,-0.5005,0.021175,0.00275,-6.8348661,109.4553644,31.299999999999997,0.00244016,1.955,0.0
1776413668722,8.73495,-10.111951,43.170002,45.507618,1.7034875,0.0158125,-0.9326625,-6.8348661,109.4553644,31.299999999999997,0.00244016,1.955,0.0
1776413668722,-14.467051,2.7529502,21.781952,30.136013,1.7034875,0.0158125,-0.9326625,-6.8348661,109.4553644,31.299999999999997,0.00244016,1.955,0.0
1776413668727,-21.732,19.48995,-1.2379501,29.401316,1.898325,-0.3003,-0.3686375,-6.8348661,109.4553644,31.299999999999997,0.00244016,1.955,0.0
1776413668731,-0.18795002,26.911951,2.8330503,27.529312,0.44027498,-0.7887,0.2613875,-6.8348661,109.4553644,31.299999999999997,0.00244016,1.955,0.0
1776413668746,8.524051,9.25605,12.075001,19.45754,-0.16733749,-0.816475,0.339075,-6.8348661,109.4553644,31.299999999999997,0.00244016,1.955,0.0
1776413668747,22.000952,-10.00395,4.9960504,23.635168,1.44485,-0.48014998,-0.9263375,-6.8348661,109.4553644,31.299999999999997,0.00244016,1.955,0.0
1776413668748,14.611951,-10.79895,-25.750952,29.939575,1.44485,-0.48014998,-0.9263375,-6.8348661,109.4553644,31.299999999999997,0.00244016,1.955,0.0
1776413668757,-18.886051,25.852951,-19.285952,35.88915,1.291675,0.15619999,-1.511675,-6.8348661,109.4553644,31.299999999999997,0.00244016,1.955,0.0
1776413668758,-35.647053,36.159,-24.553051,52.298386,1.291675,0.15619999,-1.511675,-6.8348661,109.4553644,31.299999999999997,0.00244016,1.955,0.0
1776413668766,6.2749505,20.175001,-23.89005,35.97379,-0.7143125,-1.5123625,1.3171124,-6.8348661,109.4553644,31.299999999999997,0.00244016,1.955,0.0
1776413668766,47.22195,-0.85995007,-2.3029501,45.023476,-1.521025,-1.418725,1.5554,-6.8348661,109.4553644,31.299999999999997,0.00244016,1.955,0.0
1776413668776,44.125954,-15.505051,0.25605002,46.421886,-0.098175,1.507825,-1.584,-6.8348661,109.4553644,31.299999999999997,0.00244016,1.955,0.0
1776413668778,5.3430004,-0.35205,24.04095,28.988407,-0.098175,1.507825,-1.584,-6.8348661,109.4553644,31.299999999999997,0.00244016,1.955,0.0
1776413668783,-53.242954,22.51905,52.786053,68.424385,0.2561625,1.2098625,-2.687575,-6.8348661,109.4553644,31.299999999999997,0.00244016,1.955,0.0
1776413668794,-56.452053,21.916052,22.60395,65.39537,1.0649375,-0.895125,-1.609575,-6.8348661,109.4553644,31.299999999999997,0.00244016,1.955,0.0
1776413668795,-0.94500005,18.28305,-37.711052,46.615074,1.0649375,-0.895125,-1.609575,-6.8348661,109.4553644,31.299999999999997,0.00244016,1.955,0.0
1776413668812,44.34405,9.969001,-65.187004,72.89721,-2.3436875,2.2378125,-0.29095,-6.8348661,109.4553644,31.299999999999997,0.00244016,1.955,0.0
1776413668812,43.347004,4.281,-52.756954,69.311295,-2.3436875,2.2378125,-0.29095,-6.8348661,109.4553644,31.299999999999997,0.00244016,1.955,0.0
1776413668812,18.03405,7.9410005,14.608951,33.486046,-2.3436875,2.2378125,-0.29095,-6.8348661,109.4553644,31.299999999999997,0.00244016,1.955,0.0
1776413668816,-36.44895,11.101951,67.22505,68.51494,-2.05095,0.9788625,-2.145825,-6.8348661,109.4553644,31.299999999999997,0.00244016,1.955,0.0
1776413668823,-39.05205,0.49695003,52.680004,66.1655,-0.2024,-1.0302875,-1.27105,-6.8348661,109.4553644,31.299999999999997,0.00244016,1.955,0.0
1776413668829,12.70995,1.3950001,-23.50905,34.642097,2.2207625,-2.679875,0.2528625,-6.8348661,109.4553644,31.299999999999997,0.00244016,1.955,0.0
1776413668834,32.436,9.706051,-58.210052,60.80064,2.0717125,-0.863225,0.5636125,-6.8348661,109.4553644,31.299999999999997,0.00244016,1.955,0.0
1776413668843,13.381051,16.992,-29.391,41.35313,-3.319525,1.195975,-1.59995,-6.8348661,109.4553644,31.299999999999997,0.00244016,1.955,0.0
1776413668847,-33.910053,12.882001,49.186054,57.163033,-3.319525,1.195975,-1.59995,-6.8348661,109.4553644,31.299999999999997,0.00244016,1.955,0.0
1776413668851,-48.834003,-8.59095,78.537,85.73631,-2.5713875,-0.160875,-0.76353747,-6.8348661,109.4553644,31.299999999999997,0.00244016,1.955,0.0
1776413668857,-17.77305,-17.608051,74.746056,80.20482,0.5159,-1.3666124,0.5721375,-6.8348661,109.4553644,31.299999999999997,0.00244016,1.955,0.0
1776413668863,14.784,-7.1590505,11.091001,31.896896,4.2788625,-1.307075,1.0531125,-6.8348661,109.4553644,31.299999999999997,0.00244016,1.955,0.0
1776413668878,22.003052,18.622952,-45.45705,49.44058,-0.67705,0.4659875,0.0048125,-6.8348661,109.4553644,31.299999999999997,0.00244016,1.955,0.0
1776413668879,13.390051,31.735052,-55.051052,61.83902,-0.67705,0.4659875,0.0048125,-6.8348661,109.4553644,31.299999999999997,0.00244016,1.955,0.0
1776413668883,5.40495,15.298051,-36.138,44.0583,-0.67705,0.4659875,0.0048125,-6.8348661,109.4553644,31.299999999999997,0.00244016,1.955,0.0
1776413668884,-10.05795,6.6210003,14.494051,23.88646,-0.35035,-0.455675,0.64556247,-6.8348661,109.4553644,31.299999999999997,0.00244016,1.955,0.0
1776413668884,-12.68805,14.29695,19.990952,26.904598,-0.35035,-0.455675,0.64556247,-6.8348661,109.4553644,31.299999999999997,0.00244016,1.955,0.0
1776413668884,9.0,27.622952,-4.131,28.856424,-0.35035,-0.455675,0.64556247,-6.8348661,109.4553644,31.299999999999997,0.00244016,1.955,0.0
1776413668885,10.102051,32.349003,-47.826004,52.66409,-0.35035,-0.455675,0.64556247,-6.8348661,109.4553644,31.299999999999997,0.00244016,1.955,0.0
1776413668888,21.892952,26.478,-44.427002,55.462234,-0.35035,-0.455675,0.64556247,-6.8348661,109.4553644,31.299999999999997,0.00244016,1.955,0.0
1776413668893,25.995,20.754002,-18.72405,41.6296,-1.1155375,0.045649998,0.0528,-6.8348661,109.4553644,31.299999999999997,0.00244016,1.955,0.0
1776413668899,3.7459502,12.690001,-16.626001,25.324598,-0.671825,0.814,-0.4494875,-6.8348661,109.4553644,31.299999999999997,0.00244016,1.955,0.0
1776413668914,-0.90195006,8.286,-26.608051,27.371292,-1.4081374,0.5946875,-0.91245,-6.8348661,109.4553644,31.299999999999997,0.00244016,1.955,0.0
1776413668914,-1.2250501,9.75195,-11.445001,17.54311,-1.4081374,0.5946875,-0.91245,-6.8348661,109.4553644,31.299999999999997,0.00244016,1.955,0.0
1776413668918,-34.036953,8.647051,11.248951,33.009262,-1.4081374,0.5946875,-0.91245,-6.8348661,109.4553644,31.299999999999997,0.00244016,1.955,0.0
1776413668923,-31.836002,0.20505,38.77695,46.739418,-1.7402,-0.31405,0.1049125,-6.8348661,109.4553644,31.299999999999997,0.00244016,1.955,0.0
1776413668924,2.9220002,-0.94605005,46.105953,46.314396,-1.7402,-0.31405,0.1049125,-6.8348661,109.4553644,31.299999999999997,0.00244016,1.955,0.0
1776413668931,13.347001,0.67395,15.76395,25.795975,0.7563875,-0.699325,0.4390375,-6.8348661,109.4553644,31.299999999999997,0.00244016,1.955,0.0
1776413668941,18.28095,6.1930504,2.292,20.708864,0.7563875,-0.699325,0.4390375,-6.8348661,109.4553644,31.299999999999997,0.00244016,1.955,0.0
1776413668942,1.4779501,15.351001,14.118001,20.868385,1.0660375,-0.5908375,0.2996125,-6.8348661,109.4553644,31.299999999999997,0.00244016,1.955,0.0
1776413668942,-29.938951,4.4490004,2.3440502,28.460352,1.0660375,-0.5908375,0.2996125,-6.8348661,109.4553644,31.299999999999997,0.00244016,1.955,0.0
1776413668945,-17.253,3.2350502,22.798052,28.710432,-0.2226125,-0.176825,-0.22605,-6.8348661,109.4553644,31.299999999999997,0.00244016,1.955,0.0
1776413668949,-12.666,4.1950502,21.097052,25.71185,-0.539825,-0.70248747,0.32945,-6.8348661,109.4553644,31.299999999999997,0.00244016,1.955,0.0
1776413668967,6.3250504,-8.512051,4.0420504,14.221558,0.5542625,-0.0066,-0.0493625,-6.8348661,109.4553644,31.299999999999997,0.00244016,1.955,0.0
1776413668969,22.58295,0.94995004,15.46695,24.754946,0.5542625,-0.0066,-0.0493625,-6.8348661,109.4553644,31.299999999999997,0.00244016,1.955,0.0
1776413668969,-6.6210003,17.97405,5.02395,20.793095,0.5542625,-0.0066,-0.0493625,-6.8348661,109.4553644,31.299999999999997,0.00244016,1.955,0.0
1776413668974,-5.9290504,20.11005,-15.52095,25.027239,1.277925,0.091299996,0.0655875,-6.8348661,109.4553644,31.299999999999997,0.00244016,1.955,0.0
1776413668979,17.838001,12.393001,-23.24805,30.458181,0.5212625,-0.32793748,0.7924125,-6.8348661,109.4553644,31.299999999999997,0.00244016,1.955,0.0
1776413668991,13.345051,16.69005,-13.6390505,26.372416,-0.2470875,-0.48014998,0.401775,-6.8348661,109.4553644,31.299999999999997,0.00244016,1.955,0.0
1776413668991,2.60595,14.803051,-2.3490002,17.44498,-0.2470875,-0.48014998,0.401775,-6.8348661,109.4553644,31.299999999999997,0.00244016,1.955,0.0
1776413668996,5.80095,3.76395,21.150002,21.290407,-0.8111125,0.4882625,0.4305125,-6.8348661,109.4553644,31.299999999999997,0.00244016,1.955,0.0
1776413668999,-9.76395,-1.5810001,26.836052,27.138754,-1.077175,0.1359875,-0.0451,-6.8348661,109.4553644,31.299999999999997,0.00244016,1.955,0.0
1776413669005,-17.50695,-0.70905006,9.846001,21.506355,0.2572625,0.6182,-0.0897875,-6.8348661,109.4553644,31.299999999999997,0.00244016,1.955,0.0
1776413669007,-8.44905,7.2439504,-8.748,15.625971,0.9607125,-0.1566125,0.29645,-6.8348661,109.4553644,31.299999999999997,0.00244016,1.955,0.0
1776413669013,-8.559,7.7520003,-10.47795,15.599486,0.489225,-0.289575,0.286825,-6.8348661,109.4553644,31.299999999999997,0.00244016,1.955,0.0
1776413669025,-2.868,-5.6569505,15.792001,16.734333,-0.74525,-0.2608375,0.548625,-6.8348661,109.4553644,31.299999999999997,0.00244016,1.955,0.0
1776413669025,6.1740003,-13.333051,44.944954,41.175426,-0.74525,-0.2608375,0.548625,-6.8348661,109.4553644,31.299999999999997,0.00244016,1.955,0.0
1776413669026,0.079050004,-6.4159503,25.938002,29.61097,-0.02255,-0.02255,0.353925,-6.8348661,109.4553644,31.299999999999997,0.00244016,1.955,0.0
1776413669031,3.4699502,2.9860501,-11.076,15.510014,1.5609,-0.257675,0.16775,-6.8348661,109.4553644,31.299999999999997,0.00244016,1.955,0.0
1776413669036,0.45495003,20.139002,-31.779001,33.20254,1.815275,-0.1799875,0.159225,-6.8348661,109.4553644,31.299999999999997,0.00244016,1.955,0.0
1776413669042,-14.875051,29.118002,-42.72195,49.679394,1.5109875,0.3499375,-0.1791625,-6.8348661,109.4553644,31.299999999999997,0.00244016,1.955,0.0
1776413669046,-1.43595,27.373951,-32.65995,44.04692,0.17105,-0.2726625,0.501875,-6.8348661,109.4553644,31.299999999999997,0.00244016,1.955,0.0
1776413669062,18.406052,9.984,-19.600052,31.754536,-0.77494997,-0.3344,1.059575,-6.8348661,109.4553644,31.299999999999997,0.00244016,1.955,0.0
1776413669062,24.487051,8.71395,12.87495,29.555222,-0.816475,0.30745,0.551925,-6.8348661,109.4553644,31.299999999999997,0.00244016,1.955,0.0
1776413669062,20.38095,2.96895,1.7410501,22.446661,-0.816475,0.30745,0.551925,-6.8348661,109.4553644,31.299999999999997,0.00244016,1.955,0.0
1776413669067,25.20705,6.6280503,-31.549051,37.22751,0.639375,0.0605,0.3815625,-6.8348661,109.4553644,31.299999999999997,0.00244016,1.955,0.0
1776413669071,4.8109503,15.670051,-48.537003,48.429688,0.736175,0.426525,-0.4186875,-6.8348661,109.4553644,31.299999999999997,0.00244016,1.955,0.0
1776413669076,-29.713951,26.81805,-17.54805,44.64933,-0.489775,0.7937875,-1.1114125,-6.8348661,109.4553644,31.299999999999997,0.00244016,1.955,0.0
1776413669083,-45.016052,10.84605,29.118002,52.68877,-2.1690624,1.5450875,-0.6645375,-6.8348661,109.4553644,31.299999999999997,0.00244016,1.955,0.0
1776413669092,-14.515051,-8.93295,57.468002,58.49144,-1.9072624,-0.6950625,1.319175,-6.8348661,109.4553644,31.299999999999997,0.00244016,1.955,0.0
1776413669096,17.337,-23.55495,47.22705,56.138283,-1.9072624,-0.6950625,1.319175,-6.8348661,109.4553644,31.299999999999997,0.00244016,1.955,0.0
1776413669101,15.345,-15.74505,15.358951,32.68307,0.38073748,-0.2673,0.8636375,-6.8348661,109.4553644,31.299999999999997,0.00244016,1.955,0.0
1776413669107,5.235,11.086051,-24.021002,28.111626,1.8909,0.133925,-0.0484,-6.8348661,109.4553644,31.299999999999997,0.00244016,1.955,0.0
1776413669107,-13.821001,37.845,-42.897003,52.70297,1.5599375,-0.48014998,-0.68255,-6.8348661,109.4553644,31.299999999999997,0.00244016,1.955,0.0
1776413669117,-20.95605,25.55895,-26.529001,44.445908,0.2083125,0.67347497,-0.20047499,-6.8348661,109.4553644,31.299999999999997,0.00244016,1.955,0.0
1776413669124,4.28205,6.09705,37.363953,39.368816,-2.4223375,0.2861375,1.0627375,-6.8348661,109.4553644,31.299999999999997,0.00244016,1.955,0.0
1776413669125,14.808001,-11.026951,46.779003,48.106255,-0.2971375,-0.4651625,0.5784625,-6.8348661,109.4553644,31.299999999999997,0.00244016,1.955,0.0
1776413669128,21.579,-11.52,16.570951,33.25797,-0.2971375,-0.4651625,0.5784625,-6.8348661,109.4553644,31.299999999999997,0.00244016,1.955,0.0
1776413669131,9.099,22.479002,-12.36705,28.429253,1.6493125,0.715,0.207075,-6.8348661,109.4553644,31.299999999999997,0.00244016,1.955,0.0
1776413669137,-22.86705,47.56605,-40.782,59.04413,2.1175,0.329725,-0.743325,-6.8348661,109.4553644,31.299999999999997,0.00244016,1.955,0.0
1776413669142,-20.941051,31.575,-38.68605,55.12806,0.4445375,1.0118625,-0.102575,-6.8348661,109.4553644,31.299999999999997,0.00244016,1.955,0.0
1776413669147,12.69795,10.848001,-1.9200001,24.474262,-1.831775,-0.389675,1.14675,-6.8348661,109.4553644,31.299999999999997,0.00244016,1.955,0.0
1776413669153,16.039051,-1.3579501,34.905003,35.64499,-2.9502,-0.1555125,1.0690625,-6.8348661,109.4553644,31.299999999999997,0.00244016,1.955,0.0
1776413669158,15.208051,-13.755001,55.264954,54.286266,-2.2009625,-0.241725,0.4752,-6.8348661,109.4553644,31.299999999999997,0.00244016,1.955,0.0
1776413669168,14.241001,-12.399,59.454002,60.76161,-1.2857625,0.5212625,0.6444625,-6.8348661,109.4553644,31.299999999999997,0.00244016,1.955,0.0
1776413669169,-18.786001,-1.0849501,29.250002,39.976383,0.6744375,1.0225875,-0.399575,-6.8348661,109.4553644,31.299999999999997,0.00244016,1.955,0.0
1776413669178,-37.06695,20.44005,1.779,41.88847,0.5020125,-0.3598375,0.7924125,-6.8348661,109.4553644,31.299999999999997,0.00244016,1.955,0.0
1776413669179,-32.056053,32.641052,-35.869953,54.885723,0.5020125,-0.3598375,0.7924125,-6.8348661,109.4553644,31.299999999999997,0.00244016,1.955,0.0
1776413669182,-11.505,23.608952,-32.28405,44.27106,0.5020125,-0.3598375,0.7924125,-6.8348661,109.4553644,31.299999999999997,0.00244016,1.955,0.0
1776413669187,21.604952,0.0010500001,22.443,33.77601,-2.04985,-0.85469997,1.6831375,-6.8348661,109.4553644,31.299999999999997,0.00244016,1.955,0.0
1776413669198,32.632053,-19.266,62.17005,65.00237,-2.7555,0.037125,1.8459375,-6.8348661,109.4553644,31.299999999999997,0.00244016,1.955,0.0
1776413669213,33.72195,-3.4300501,46.88505,59.284073,3.026375,0.53515,-0.95507497,-6.8348661,109.4553644,31.299999999999997,0.00244016,1.955,0.0
1776413669214,17.61795,16.35495,-14.779051,34.4318,3.026375,0.53515,-0.95507497,-6.8348661,109.4553644,31.299999999999997,0.00244016,1.955,0.0
1776413669214,-11.038051,42.063004,-48.357002,58.914253,3.026375,0.53515,-0.95507497,-6.8348661,109.4553644,31.299999999999997,0.00244016,1.955,0.0
1776413669217,-32.578953,38.944054,-53.632954,70.86663,1.7279625,0.8416375,-1.0327625,-6.8348661,109.4553644,31.299999999999997,0.00244016,1.955,0.0
1776413669222,-26.20305,23.46795,-15.586051,44.952744,-0.85263747,0.4574625,-0.0323125,-6.8348661,109.4553644,31.299999999999997,0.00244016,1.955,0.0
1776413669228,-0.15495001,5.2270503,29.559002,33.00495,-2.7490375,-0.0268125,1.0115875,-6.8348661,109.4553644,31.299999999999997,0.00244016,1.955,0.0
1776413669233,31.068,-8.04,36.550053,45.512325,-2.107325,-0.9802375,1.5426124,-6.8348661,109.4553644,31.299999999999997,0.00244016,1.955,0.0
1776413669244,44.050953,-8.93595,15.073951,47.029232,-0.1098625,-0.2949375,1.3660625,-6.8348661,109.4553644,31.299999999999997,0.00244016,1.955,0.0
1776413669244,32.29695,-3.2329502,-13.749001,37.606045,1.356575,1.1746625,-1.0177749,-6.8348661,109.4553644,31.299999999999997,0.00244016,1.955,0.0
1776413669247,-5.4430504,14.436001,-24.739952,30.846254,1.356575,1.1746625,-1.0177749,-6.8348661,109.4553644,31.299999999999997,0.00244016,1.955,0.0
1776413669252,-48.667953,30.832052,-7.1700006,52.614704,0.410575,1.213025,-1.951125,-6.8348661,109.4553644,31.299999999999997,0.00244016,1.955,0.0
1776413669259,-49.155003,19.549952,5.2039504,53.04726,-0.28435,1.066175,-1.199825,-6.8348661,109.4553644,31.299999999999997,0.00244016,1.955,0.0
1776413669262,-3.216,3.8119502,26.344952,32.05975,-1.9009374,-1.29745,0.5157625,-6.8348661,109.4553644,31.299999999999997,0.00244016,1.955,0.0
1776413669268,33.91605,-14.511001,25.866001,42.455635,-1.1092125,-0.8749125,1.8321875,-6.8348661,109.4553644,31.299999999999997,0.00244016,1.955,0.0
1776413669278,35.619003,-12.318001,9.37905,39.561764,1.5406874,0.2041875,0.1772375,-6.8348661,109.4553644,31.299999999999997,0.00244016,1.955,0.0
1776413669283,20.920052,6.3360004,-22.01205,32.729427,1.5236375,0.3564,-1.1636626,-6.8348661,109.4553644,31.299999999999997,0.00244016,1.955,0.0
1776413669284,-14.90295,29.323952,-31.591951,43.031883,1.5236375,0.3564,-1.1636626,-6.8348661,109.4553644,31.299999999999997,0.00244016,1.955,0.0
1776413669288,-40.065002,29.530052,-14.09895,49.990498,0.3711125,1.25565,-1.1699874,-6.8348661,109.4553644,31.299999999999997,0.00244016,1.955,0.0
1776413669299,-17.827951,13.663051,11.938951,30.347893,-1.0197,0.2297625,0.06985,-6.8348661,109.4553644,31.299999999999997,0.00244016,1.955,0.0
1776413669311,21.730051,-8.62695,22.50105,32.028522,-2.0403626,-1.1187,1.204225,-6.8348661,109.4553644,31.299999999999997,0.00244016,1.955,0.0
1776413669311,32.91,-17.053051,24.865051,42.112473,0.3084125,0.66385,0.487025,-6.8348661,109.4553644,31.299999999999997,0.00244016,1.955,0.0
1776413669313,20.611052,-3.9520502,12.5779505,27.996178,0.3084125,0.66385,0.487025,-6.8348661,109.4553644,31.299999999999997,0.00244016,1.955,0.0
1776413669318,-8.688001,19.53,-6.1860003,23.401148,1.4587375,0.426525,-0.9263375,-6.8348661,109.4553644,31.299999999999997,0.00244016,1.955,0.0
1776413669323,-35.05995,33.931953,-9.58695,44.459522,0.4860625,0.5946875,-0.4505875,-6.8348661,109.4553644,31.299999999999997,0.00244016,1.955,0.0
1776413669328,-31.38795,18.30195,-8.99505,38.836662,0.4860625,0.5946875,-0.4505875,-6.8348661,109.4553644,31.299999999999997,0.00244016,1.955,0.0
1776413669334,9.522,-0.68700004,11.433001,19.683144,-1.583725,-1.0197,0.79983747,-6.8348661,109.4553644,31.299999999999997,0.00244016,1.955,0.0
1776413669349,34.23405,-11.85105,6.768,33.419895,-0.8111125,-0.6557375,1.5096124,-6.8348661,109.4553644,31.299999999999997,0.00244016,1.955,0.0
1776413669349,31.309952,-6.0160503,-10.588051,33.559845,-0.21835,1.1939125,-1.3552,-6.8348661,109.4553644,31.299999999999997,0.00244016,1.955,0.0
1776413669350,12.319951,13.729951,-4.47795,21.898167,-0.21835,1.1939125,-1.3552,-6.8348661,109.4553644,31.299999999999997,0.00244016,1.955,0.0
1776413669351,-34.44195,29.764051,26.826002,46.649483,-0.21835,1.1939125,-1.3552,-6.8348661,109.4553644,31.299999999999997,0.00244016,1.955,0.0
1776413669353,-45.600002,18.963001,23.65995,53.138565,-0.0449625,1.3470875,-1.002925,-6.8348661,109.4553644,31.299999999999997,0.00244016,1.955,0.0
1776413669359,-0.71505004,13.02105,7.0270505,22.478477,-0.0449625,1.3470875,-1.002925,-6.8348661,109.4553644,31.299999999999997,0.00244016,1.955,0.0
1776413669359,26.48895,3.3640501,-22.879051,32.62605,0.5361125,-1.00375,1.2967625,-6.8348661,109.4553644,31.299999999999997,0.00244016,1.955,0.0
1776413669366,32.22195,2.6910002,-28.930952,41.2354,0.85745,-0.636625,0.895675,-6.8348661,109.4553644,31.299999999999997,0.00244016,1.955,0.0
