timestamp,ax,ay,az,magnitude,gx,gy,gz,lat,lon,alt,speed,accuracy,bearing
1779701557537,-0.303,10.972951,3.0919502,11.047569,0.0449625,0.021724999,0.0015125,-6.8938666,109.4104198,34.0,2.152627,10.837,355.6017
1779701557538,-1.94895,10.302,2.67,10.865,0.0779625,-0.0188375,0.037675,-6.8938666,109.4104198,34.0,2.152627,10.837,355.6017
1779701557547,2.91195,9.667951,0.14595,10.251417,0.0779625,-0.0188375,0.037675,-6.8938666,109.4104198,34.0,2.152627,10.837,355.6017
1779701557555,-1.3590001,11.81595,-2.502,11.77361,0.098175,0.018424999,-0.0878625,-6.8938666,109.4104198,34.0,2.152627,10.837,355.6017
1779701557557,0.78300005,8.99895,0.70395005,9.602993,0.098175,0.018424999,-0.0878625,-6.8938666,109.4104198,34.0,2.152627,10.837,355.6017
1779701557557,2.0400002,6.8490005,6.294,9.538886,0.098175,0.018424999,-0.0878625,-6.8938666,109.4104198,34.0,2.152627,10.837,355.6017
1779701609441,3.1300502,15.229051,-8.941951,14.348345,,,,-6.893785,109.4104333,34.39999771118164,0.03911889,5.071,0.0
1779701609441,0.23895001,9.924001,1.13205,10.862643,,,,-6.893785,109.4104333,34.39999771118164,0.03911889,5.071,0.0
1779701609442,2.697,6.267,-4.37295,8.65558,,,,-6.893785,109.4104333,34.39999771118164,0.03911889,5.071,0.0
1779701609442,-9.934051,7.11,9.346951,14.036638,,,,-6.893785,109.4104333,34.39999771118164,0.03911889,5.071,0.0
1779701609442,0.057000004,4.56405,10.63395,12.06505,,,,-6.893785,109.4104333,34.39999771118164,0.03911889,5.071,0.0
1779701609442,7.2760506,8.23995,-2.1430502,11.372665,,,,-6.893785,109.4104333,34.39999771118164,0.03911889,5.071,0.0
1779701609442,-1.47195,14.391001,-3.1339502,14.115863,,,,-6.893785,109.4104333,34.39999771118164,0.03911889,5.071,0.0
1779701609529,-2.1379502,9.865951,7.2690005,12.774935,0.1398375,0.019524999,0.185075,-6.893785,109.4104333,34.39999771118164,0.03911889,5.071,0.0
1779701609530,-0.73905003,8.214001,10.435051,13.1954775,0.1398375,0.019524999,0.185075,-6.893785,109.4104333,34.39999771118164,0.03911889,5.071,0.0
1779701609530,0.08400001,10.71,6.7630506,12.772605,0.1398375,0.019524999,0.185075,-6.893785,109.4104333,34.39999771118164,0.03911889,5.071,0.0
1779701609530,1.07805,13.588051,-0.77295005,13.476639,0.1398375,0.019524999,0.185075,-6.893785,109.4104333,34.39999771118164,0.03911889,5.071,0.0
1779701609530,-1.9249501,9.92205,5.18505,11.782893,0.1398375,0.019524999,0.185075,-6.893785,109.4104333,34.39999771118164,0.03911889,5.071,0.0
1779701609531,3.9589503,10.0990505,-1.4680501,11.113539,0.1398375,0.019524999,0.185075,-6.893785,109.4104333,34.39999771118164,0.03911889,5.071,0.0
1779701609569,6.1720505,9.8539505,-3.9130502,12.037195,-0.1953875,-0.022,-0.108625,-6.893785,109.4104333,34.39999771118164,0.03911889,5.071,0.0
1779701609569,3.24795,9.114,6.0540004,11.538138,-0.1953875,-0.022,-0.108625,-6.893785,109.4104333,34.39999771118164,0.03911889,5.071,0.0
1779701609583,-3.561,6.813,8.455951,11.450085,0.281325,-0.0103124995,-0.0331375,-6.893785,109.4104333,34.39999771118164,0.03911889,5.071,0.0
1779701609584,-3.3709502,10.1970005,-2.56905,11.12421,0.281325,-0.0103124995,-0.0331375,-6.893785,109.4104333,34.39999771118164,0.03911889,5.071,0.0
1779701609604,-1.7190001,7.7179503,12.26895,13.901797,0.29947498,-0.036849998,0.1595,-6.893785,109.4104333,34.39999771118164,0.03911889,5.071,0.0
1779701609605,5.80095,9.234,2.4430501,11.720562,0.29947498,-0.036849998,0.1595,-6.893785,109.4104333,34.39999771118164,0.03911889,5.071,0.0
1779701609642,0.84300005,9.28905,8.02305,12.186599,-0.5955125,-0.1252625,0.0308,-6.893785,109.4104333,34.39999771118164,0.03911889,5.071,0.0
1779701609646,-11.44305,13.011001,6.7870502,17.324492,-0.34553748,-0.14973749,0.20845,-6.893785,109.4104333,34.39999771118164,0.03911889,5.071,0.0
1779701609766,2.86905,4.6410003,9.11295,11.962096,-0.304975,0.2058375,-0.08415,-6.893785,109.4104333,34.39999771118164,0.03911889,5.071,0.0
1779701609766,7.2760506,9.106951,0.11505,11.718193,-0.304975,0.2058375,-0.08415,-6.893785,109.4104333,34.39999771118164,0.03911889,5.071,0.0
1779701609767,-10.330951,10.153951,13.33005,18.092093,-0.304975,0.2058375,-0.08415,-6.893785,109.4104333,34.39999771118164,0.03911889,5.071,0.0
1779701609768,4.38,12.793051,-7.89795,16.146128,-0.304975,0.2058375,-0.08415,-6.893785,109.4104333,34.39999771118164,0.03911889,5.071,0.0
1779701609768,1.8220501,7.6060505,7.7830505,12.056374,-0.304975,0.2058375,-0.08415,-6.893785,109.4104333,34.39999771118164,0.03911889,5.071,0.0
1779701609769,1.59,13.128,-3.5419502,13.363328,-0.304975,0.2058375,-0.08415,-6.893785,109.4104333,34.39999771118164,0.03911889,5.071,0.0
1779701609769,5.0820003,6.906,-2.538,9.82634,-0.304975,0.2058375,-0.08415,-6.893785,109.4104333,34.39999771118164,0.03911889,5.071,0.0
1779701609769,-5.2990503,6.7429504,7.5199504,11.090073,-0.304975,0.2058375,-0.08415,-6.893785,109.4104333,34.39999771118164,0.03911889,5.071,0.0
1779701609770,1.0009501,10.59195,-5.9989505,11.989114,-0.304975,0.2058375,-0.08415,-6.893785,109.4104333,34.39999771118164,0.03911889,5.071,0.0
1779701609770,1.2090001,4.81995,10.96395,12.027836,-0.304975,0.2058375,-0.08415,-6.893785,109.4104333,34.39999771118164,0.03911889,5.071,0.0
1779701609770,2.56305,11.62905,-0.25305,11.9342375,0.22385,-0.0804375,0.0031625,-6.893785,109.4104333,34.39999771118164,0.03911889,5.071,0.0
1779701609771,1.99995,11.514001,-1.9729501,11.868267,0.22385,-0.0804375,0.0031625,-6.893785,109.4104333,34.39999771118164,0.03911889,5.071,0.0
1779701609780,-1.4959501,11.548051,4.1620502,12.266456,-0.3422375,0.12595,-0.027775,-6.893785,109.4104333,34.39999771118164,0.03911889,5.071,0.0
1779701609784,2.8519502,11.902051,-2.157,12.395366,-0.3763375,0.1546875,-0.14795,-6.893785,109.4104333,34.39999771118164,0.03911889,5.071,0.0
1779701609795,0.060000002,12.240001,1.8079501,12.377434,0.0653125,-0.27101249,0.04455,-6.893785,109.4104333,34.39999771118164,0.03911889,5.071,0.0
1779701609805,5.63805,7.938,-6.0420003,11.642566,-0.325325,0.313225,-0.404525,-6.893785,109.4104333,34.39999771118164,0.03911889,5.071,0.0
1779701609815,-3.1249502,8.817,1.7190001,9.93734,0.0642125,-0.1953875,0.070125,-6.893785,109.4104333,34.39999771118164,0.03911889,5.071,0.0
1779701609846,-0.25500003,5.793,-2.84505,7.1546373,-0.583825,0.15895,-0.2193125,-6.893785,109.4104333,34.39999771118164,0.03911889,5.071,0.0
1779701609847,-1.233,4.1620502,8.01105,8.720147,-0.096525,-0.16995,0.056375,-6.893785,109.4104333,34.39999771118164,0.03911889,5.071,0.0
1779701609847,-4.6810503,7.1050506,24.41205,22.425882,-0.096525,-0.16995,0.056375,-6.893785,109.4104333,34.39999771118164,0.03911889,5.071,0.0
1779701609854,2.325,5.55495,22.570051,23.172846,1.1614625,-0.176275,0.007425,-6.893785,109.4104333,34.39999771118164,0.03911889,5.071,0.0
1779701609867,2.83605,16.303951,-18.843,24.697203,0.0631125,0.412225,-0.011825,-6.893785,109.4104333,34.39999771118164,0.03911889,5.071,0.0
1779701609875,-3.867,19.99995,-15.214951,25.27969,-0.355025,-0.192225,0.66605,-6.893785,109.4104333,34.39999771118164,0.03911889,5.071,0.0
1779701609885,18.288,8.343,-6.1980004,21.883951,-0.27307498,0.2195875,-0.434225,-6.893785,109.4104333,34.39999771118164,0.03911889,5.071,0.0
1779701609902,1.7310001,10.149,5.451,13.69643,-0.29755,-0.2550625,-0.0394625,-6.893785,109.4104333,34.39999771118164,0.03911889,5.071,0.0
1779701609907,-12.05595,7.5049505,11.056951,17.13765,-0.29755,-0.2550625,-0.0394625,-6.893785,109.4104333,34.39999771118164,0.03911889,5.071,0.0
1779701609915,-0.07305,3.52395,14.583001,15.429864,0.45581248,0.183425,-0.01705,-6.893785,109.4104333,34.39999771118164,0.03911889,5.071,0.0
1779701609933,-0.99300003,11.253,4.998,12.968355,0.2952125,0.011,-0.0235125,-6.893785,109.4104333,34.39999771118164,0.03911889,5.071,0.0
1779701609936,-0.39195,12.336,-3.903,12.94939,0.2728,-0.036849998,0.1233375,-6.893785,109.4104333,34.39999771118164,0.03911889,5.071,0.0
1779701609946,5.65005,11.862,-4.2769504,13.643852,-0.076175,0.3271125,0.070125,-6.893785,109.4104333,34.39999771118164,0.03911889,5.071,0.0
1779701609956,4.83795,9.91695,-0.87405,11.583713,-0.086899996,-0.0559625,0.006325,-6.893785,109.4104333,34.39999771118164,0.03911889,5.071,0.0
1779701609972,-0.16005,13.243051,-10.044001,15.6142235,-0.94682497,0.067375,0.0020625,-6.893785,109.4104333,34.39999771118164,0.03911889,5.071,0.0
1779701609981,0.606,5.3370004,4.392,8.6735115,0.5080625,0.011,-0.1885125,-6.893785,109.4104333,34.39999771118164,0.03911889,5.071,0.0
1779701609986,1.4989501,7.215,4.34205,8.577228,0.5080625,0.011,-0.1885125,-6.893785,109.4104333,34.39999771118164,0.03911889,5.071,0.0
1779701609996,0.43605003,10.045951,-2.4109502,9.987768,-0.452925,-0.1656875,-0.3172125,-6.893785,109.4104333,34.39999771118164,0.03911889,5.071,0.0
1779701610015,-0.59805006,5.5270505,4.2049503,7.573936,0.1398375,-0.1634875,-0.026675,-6.893785,109.4104333,34.39999771118164,0.03911889,5.071,0.0
1779701610017,-3.5839503,10.908001,5.02005,11.539719,-0.518925,-0.224125,0.020075,-6.893785,109.4104333,34.39999771118164,0.03911889,5.071,0.0
1779701610028,-2.32005,8.773951,19.914001,19.815561,0.54945,-0.00275,0.0977625,-6.893785,109.4104333,34.39999771118164,0.03911889,5.071,0.0
1779701610036,7.221,9.92205,-0.23400001,13.7821045,0.6197125,-0.4360125,0.1084875,-6.893785,109.4104333,34.39999771118164,0.03911889,5.071,0.0
1779701610048,-2.8849502,14.170051,-6.6670504,15.495346,-0.0559625,-0.210375,0.30855,-6.893785,109.4104333,34.39999771118164,0.03911889,5.071,0.0
1779701610057,4.28205,12.063001,-6.15,14.46004,0.2184875,0.1111,0.201025,-6.893785,109.4104333,34.39999771118164,0.03911889,5.071,0.0
1779701610067,1.2379501,11.101951,7.0459504,13.457802,-0.161425,0.1291125,-0.1139875,-6.893785,109.4104333,34.39999771118164,0.03911889,5.071,0.0
1779701610082,0.057000004,7.62195,7.005,10.973296,-0.20185,0.26427498,-0.2608375,-6.893785,109.4104333,34.39999771118164,0.03911889,5.071,0.0
1779701610086,3.3769503,10.048051,-4.5090003,11.410235,-0.5253875,0.1771,-0.1788875,-6.893785,109.4104333,34.39999771118164,0.03911889,5.071,0.0
1779701610101,-2.868,6.6520505,11.292001,13.014711,0.0897875,0.2514875,-0.2959,-6.893785,109.4104333,34.39999771118164,0.03911889,5.071,0.0
1779701610108,-6.609,3.6180003,18.786001,18.795437,0.0897875,0.2514875,-0.2959,-6.893785,109.4104333,34.39999771118164,0.03911889,5.071,0.0
1779701610117,-2.09205,7.32495,4.0470004,10.659975,0.6059625,0.067375,0.0818125,-6.893785,109.4104333,34.39999771118164,0.03911889,5.071,0.0
1779701610134,3.96795,10.333051,-7.0600505,12.634897,0.5537125,0.2440625,0.1392875,-6.893785,109.4104333,34.39999771118164,0.03911889,5.071,0.0
1779701610137,2.70105,12.1060505,-1.6330501,12.5355835,0.705925,0.0429,0.251075,-6.893785,109.4104333,34.39999771118164,0.03911889,5.071,0.0
1779701610147,10.179001,16.11495,-17.299051,23.099323,-0.3997125,0.2589125,-0.24915,-6.893785,109.4104333,34.39999771118164,0.03911889,5.071,0.0
1779701610158,0.90795004,10.695001,-2.80395,13.494802,0.266475,-0.0251625,-0.198,-6.893785,109.4104333,34.39999771118164,0.03911889,5.071,0.0
1779701610171,-0.84000003,11.569051,-1.7380501,12.082157,-0.9340375,-0.1634875,-0.1373625,-6.893785,109.4104333,34.39999771118164,0.03911889,5.071,0.0
1779701610181,1.8010501,4.57095,13.42395,13.852229,0.1546875,-0.27101249,-0.31185,-6.893785,109.4104333,34.39999771118164,0.03911889,5.071,0.0
1779701610191,-2.7799501,5.02605,16.164001,16.493752,0.511225,-0.0166375,-0.369325,-6.893785,109.4104333,34.39999771118164,0.03911889,5.071,0.0
1779701610200,-7.491,13.8810005,-0.90705,15.938244,0.085525,-0.0847,0.135025,-6.893785,109.4104333,34.39999771118164,0.03911889,5.071,0.0
1779701610215,0.93600005,11.29395,-1.353,12.31817,0.397375,-0.112475,0.24365,-6.893785,109.4104333,34.39999771118164,0.03911889,5.071,0.0
1779701610220,12.253051,13.002001,-10.674001,19.112932,-0.423225,0.3037375,-0.3012625,-6.893785,109.4104333,34.39999771118164,0.03911889,5.071,0.0
1779701610231,3.279,13.18095,-3.7039502,15.08551,-0.256025,-0.0231,-0.158675,-6.893785,109.4104333,34.39999771118164,0.03911889,5.071,0.0
1779701610248,-4.9159503,9.241051,7.0000505,13.090888,-0.1783375,-0.3029125,-0.1766875,-6.893785,109.4104333,34.39999771118164,0.03911889,5.071,0.0
1779701610251,-2.38905,6.4080005,11.4210005,13.2677765,-0.00275,-0.2519,-0.1788875,-6.893785,109.4104333,34.39999771118164,0.03911889,5.071,0.0
1779701610261,-0.8880001,5.6920505,12.760051,13.853752,0.45155,-0.079475,-0.1310375,-6.893785,109.4104333,34.39999771118164,0.03911889,5.071,0.0
1779701610271,1.45605,7.6750503,4.4760003,9.973463,0.1483625,-0.0070125,-0.158675,-6.893785,109.4104333,34.39999771118164,0.03911889,5.071,0.0
1779701610281,-0.94005007,6.5800505,8.50905,10.632645,0.73039997,0.215325,-0.0809875,-6.893785,109.4104333,34.39999771118164,0.03911889,5.071,0.0
1779701610291,-1.2060001,12.118051,-4.689,12.566094,0.054725,0.0759,-0.11605,-6.893785,109.4104333,34.39999771118164,0.03911889,5.071,0.0
1779701610301,0.13605,12.7879505,-0.064050004,12.744287,0.5292375,-0.03575,0.1733875,-6.893785,109.4104333,34.39999771118164,0.03911889,5.071,0.0
1779701610311,12.934951,11.51895,-12.22395,19.508556,-0.2847625,0.32285,-0.339625,-6.893785,109.4104333,34.39999771118164,0.03911889,5.071,0.0
1779701610321,-0.9979501,13.344001,-4.1719503,15.114944,-0.2454375,-0.127325,-0.0394625,-6.893785,109.4104333,34.39999771118164,0.03911889,5.071,0.0
1779701610333,-0.90195006,6.7120504,3.084,8.976203,-0.0730125,-0.357225,-0.38005,-6.893785,109.4104333,34.39999771118164,0.03911889,5.071,0.0
1779701610341,-0.79395,9.826051,-4.4710503,10.454919,-0.307175,-0.2294875,-0.207625,-6.893785,109.4104333,34.39999771118164,0.03911889,5.071,0.0
1779701610351,-1.6969501,4.79895,8.95005,10.3279915,0.1419,-0.69245,-0.0213125,-6.893785,109.4104333,34.39999771118164,0.03911889,5.071,0.0
1779701610368,4.6200004,8.07495,-0.22200002,9.510263,-0.554125,-0.0528,-0.47685,-6.893785,109.4104333,34.39999771118164,0.03911889,5.071,0.0
1779701610371,-7.8,9.94305,15.031051,17.612162,0.4888125,-0.372075,0.045649998,-6.893785,109.4104333,34.39999771118164,0.03911889,5.071,0.0
1779701610381,-0.37995002,11.371051,3.9559503,13.158853,0.1111,-0.144375,-0.0053625,-6.893785,109.4104333,34.39999771118164,0.03911889,5.071,0.0
1779701610392,3.93495,16.87005,-6.0880504,17.321016,-0.18259999,-0.2146375,0.088275,-6.893785,109.4104333,34.39999771118164,0.03911889,5.071,0.0
1779701610402,7.1080503,9.10005,0.21000001,12.703403,-0.0911625,0.2674375,-0.287375,-6.893785,109.4104333,34.39999771118164,0.03911889,5.071,0.0
1779701610418,-2.025,8.319,4.9549503,10.454535,0.0812625,-6.875E-4,-0.1342,-6.893785,109.4104333,34.39999771118164,0.03911889,5.071,0.0
1779701610423,-2.11395,9.655951,-2.09295,10.173941,-0.648725,-0.112475,0.005225,-6.893785,109.4104333,34.39999771118164,0.03911889,5.071,0.0
1779701610433,-1.23705,7.7710505,13.34895,14.431278,0.35475,-0.088,0.0999625,-6.893785,109.4104333,34.39999771118164,0.03911889,5.071,0.0
1779701610449,5.57805,2.523,13.510051,14.752218,0.0259875,0.2941125,-0.2215125,-6.893785,109.4104333,34.39999771118164,0.03911889,5.071,0.0
1779701610453,-3.249,15.174001,-13.038001,19.16492,-0.56045,-0.3922875,0.1978625,-6.893785,109.4104333,34.39999771118164,0.03911889,5.071,0.0
1779701610467,-3.7159503,10.630051,-2.65995,13.089561,0.1387375,0.011,-0.18315,-6.893785,109.4104333,34.39999771118164,0.03911889,5.071,0.0
1779701610473,10.6390505,7.9960504,-7.8310504,14.971415,0.1387375,0.011,-0.18315,-6.893785,109.4104333,34.39999771118164,0.03911889,5.071,0.0
1779701610483,-5.93895,13.366051,6.1399503,15.684346,0.004675,-0.4477,0.20845,-6.893785,109.4104333,34.39999771118164,0.03911889,5.071,0.0
1779701610493,-1.5340501,8.53005,13.888051,16.233263,0.25685,-0.341275,0.2564375,-6.893785,109.4104333,34.39999771118164,0.03911889,5.071,0.0
1779701610503,7.3000503,7.4430003,4.1719503,12.229985,0.4175875,0.2206875,-0.1522125,-6.893785,109.4104333,34.39999771118164,0.03911889,5.071,0.0
1779701610516,-5.6920505,9.7900505,0.069000006,11.505774,-0.13475,-0.26785,0.2776125,-6.893785,109.4104333,34.39999771118164,0.03911889,5.071,0.0
1779701610522,-5.2510505,12.685051,-0.36105,13.288112,0.0015125,-0.2476375,0.592625,-6.893785,109.4104333,34.39999771118164,0.03911889,5.071,0.0
1779701610534,12.340951,3.52005,0.14805001,12.924829,0.20899999,0.345125,-0.4013625,-6.893785,109.4104333,34.39999771118164,0.03911889,5.071,0.0
1779701610549,-4.806,11.50905,7.9249506,14.406593,0.0451,-0.055,0.43408749,-6.893785,109.4104333,34.39999771118164,0.03911889,5.071,0.0
1779701610553,-2.7889502,12.73995,1.245,13.36207,-0.3251875,-0.013475,0.1010625,-6.893785,109.4104333,34.39999771118164,0.03911889,5.071,0.0
1779701610567,2.53395,9.2029505,4.00605,10.954004,0.3249125,0.044,-0.044825,-6.893785,109.4104333,34.39999771118164,0.03911889,5.071,0.0
1779701610571,3.0300002,13.143001,-10.281,15.758252,-0.1167375,-0.012375,0.2277,-6.893785,109.4104333,34.39999771118164,0.03911889,5.071,0.0
1779701610581,5.7190504,10.06305,-9.53205,15.147182,-0.289025,-0.26565,-0.1991,-6.893785,109.4104333,34.39999771118164,0.03911889,5.071,0.0
1779701610592,-2.013,4.90605,7.3450503,10.276892,-0.46035,-0.2369125,-0.1012,-6.893785,109.4104333,34.39999771118164,0.03911889,5.071,0.0
1779701610603,-5.0890503,7.90005,8.839951,12.376741,0.1706375,0.2079,-0.1661,-6.893785,109.4104333,34.39999771118164,0.03911889,5.071,0.0
1779701610621,-2.121,8.82195,13.516951,15.499226,-0.16665,-0.1167375,0.1170125,-6.893785,109.4104333,34.39999771118164,0.03911889,5.071,0.0
1779701610622,5.13,7.4280005,7.7400002,12.612773,0.740025,0.397375,-0.0149875,-6.893785,109.4104333,34.39999771118164,0.03911889,5.071,0.0
1779701610634,-2.799,13.300951,-7.1389503,14.804947,0.1122,0.101475,-0.1885125,-6.893785,109.4104333,34.39999771118164,0.03911889,5.071,0.0
1779701610655,-1.02195,12.09405,-7.6390505,14.433825,0.22495,0.02915,0.1617,-6.893785,109.4104333,34.39999771118164,0.03911889,5.071,0.0
1779701610656,6.6439505,11.823001,-2.47305,13.915207,-0.6689375,0.2058375,-0.1458875,-6.893785,109.4104333,34.39999771118164,0.03911889,5.071,0.0
1779701610662,4.155,6.8629503,15.397051,16.672508,0.4676375,4.125E-4,0.087175,-6.893785,109.4104333,34.39999771118164,0.03911889,5.071,0.0
1779701610672,0.39000002,12.42195,-0.37500003,13.281485,-0.32945,0.0727375,-0.052249998,-6.893785,109.4104333,34.39999771118164,0.03911889,5.071,0.0
1779701610688,-5.043,11.3560505,4.7899504,13.309683,0.1483625,-0.17847499,0.0328625,-6.893785,109.4104333,34.39999771118164,0.03911889,5.071,0.0
1779701610694,1.8730501,6.5179505,-2.112,8.344333,-0.0070125,0.106837496,0.070125,-6.893785,109.4104333,34.39999771118164,0.03911889,5.071,0.0
1779701610704,-0.23400001,11.410951,-5.4619503,11.791236,-0.23155,-0.26565,0.124437496,-6.893785,109.4104333,34.39999771118164,0.03911889,5.071,0.0
1779701610713,2.9170501,6.4300504,3.1230001,8.534738,-0.32945,-0.0070125,-0.31405,-6.893785,109.4104333,34.39999771118164,0.03911889,5.071,0.0
1779701610726,-0.44700003,4.4539504,11.467051,11.554773,0.300575,-0.0858,-0.0363,-6.893785,109.4104333,34.39999771118164,0.03911889,5.071,0.0
1779701610737,-5.50995,10.05105,1.12995,11.525204,-0.0633875,-0.077275,0.2894375,-6.893785,109.4104333,34.39999771118164,0.03911889,5.071,0.0
1779701610746,0.522,11.48805,-0.78495,11.526371,0.185625,-0.38279998,0.21175,-6.893785,109.4104333,34.39999771118164,0.03911889,5.071,0.0
1779701610753,9.56595,7.4790006,-0.58605003,12.030665,-0.6732,-0.2391125,0.216975,-6.893785,109.4104333,34.39999771118164,0.03911889,5.071,0.0
1779701610769,-1.48395,9.562051,3.039,10.520138,0.5325375,0.3100625,-0.14795,-6.893785,109.4104333,34.39999771118164,0.03911889,5.071,0.0
1779701610776,-1.2040501,15.97605,-16.105951,20.27804,-1.04995,-0.1794375,0.1318625,-6.893785,109.4104333,34.39999771118164,0.03911889,5.071,0.0
1779701610785,2.7250502,3.5770502,6.663,10.486372,-0.0389125,-0.127325,0.11275,-6.893785,109.4104333,34.39999771118164,0.03911889,5.071,0.0
1779701610804,0.28005,11.599951,0.246,11.382026,-0.307175,-0.16995,-0.0416625,-6.893785,109.4104333,34.39999771118164,0.03911889,5.071,0.0
1779701610805,-3.381,7.6800003,15.874051,16.640785,0.3399,-0.26785,0.150975,-6.893785,109.4104333,34.39999771118164,0.03911889,5.071,0.0
1779701610816,0.56505,4.40595,14.23095,15.2546425,0.5900125,0.1865875,-0.0798875,-6.893785,109.4104333,34.39999771118164,0.03911889,5.071,0.0
1779701610826,-4.485,19.01295,-10.429951,20.766754,-0.4838625,-0.055,0.40755,-6.893785,109.4104333,34.39999771118164,0.03911889,5.071,0.0
1779701610836,4.8520503,9.768001,4.2840004,13.52766,-0.0496375,-0.1837,0.11165,-6.893785,109.4104333,34.39999771118164,0.03911889,5.071,0.0
1779701610853,6.1930504,9.843,6.873,13.512246,-0.043175,0.3399,-0.231,-6.893785,109.4104333,34.39999771118164,0.03911889,5.071,0.0
1779701610856,-5.874,9.948001,10.714951,15.30789,0.3697375,0.085525,-0.0011,-6.893785,109.4104333,34.39999771118164,0.03911889,5.071,0.0
1779701610868,-3.285,8.73795,1.06305,10.577878,-0.0719125,-0.096525,0.315975,-6.893785,109.4104333,34.39999771118164,0.03911889,5.071,0.0
1779701610876,5.7000003,5.35395,-1.70895,8.51934,0.1227875,-0.014575,0.0680625,-6.893785,109.4104333,34.39999771118164,0.03911889,5.071,0.0
1779701610886,2.73705,8.25,-3.85995,9.312416,-0.1868625,0.1131625,0.0191125,-6.893785,109.4104333,34.39999771118164,0.03911889,5.071,0.0
1779701610897,-1.779,10.64505,-2.7199502,10.766597,-0.10175,-0.06875,0.24145,-6.893785,109.4104333,34.39999771118164,0.03911889,5.071,0.0
1779701610906,5.12295,8.13,-2.4139502,10.079727,-0.3806,0.1313125,-0.1661,-6.893785,109.4104333,34.39999771118164,0.03911889,5.071,0.0
1779701610925,-2.49195,10.39095,7.8030005,12.601021,0.108899996,-0.1868625,0.120175,-6.893785,109.4104333,34.39999771118164,0.03911889,5.071,0.0
1779701610928,1.04205,11.064,2.7589502,11.680459,-0.2454375,-0.027224999,-0.0374,-6.893785,109.4104333,34.39999771118164,0.03911889,5.071,0.0
1779701610939,2.838,10.630051,2.73705,11.4062605,0.052525,0.0408375,0.07755,-6.893785,109.4104333,34.39999771118164,0.03911889,5.071,0.0
1779701610947,-2.9260502,9.0070505,9.04605,12.758496,0.4813875,0.1078,0.01375,-6.893785,109.4104333,34.39999771118164,0.03911889,5.071,0.0
1779701610957,-2.2120502,14.89605,-1.08405,14.630392,-0.3146,0.0301125,0.3925625,-6.893785,109.4104333,34.39999771118164,0.03911889,5.071,0.0
1779701610974,7.3330503,5.5630503,2.12205,10.482766,0.1557875,0.036575,-0.1683,-6.893785,109.4104333,34.39999771118164,0.03911889,5.071,0.0
1779701610975,-1.5370501,8.928,2.7439501,9.669177,0.2739,0.1643125,0.072325,-6.893785,109.4104333,34.39999771118164,0.03911889,5.071,0.0
1779701610985,0.09105001,9.831,-4.119,10.461363,-0.68915,-0.0826375,-0.061875,-6.893785,109.4104333,34.39999771118164,0.03911889,5.071,0.0
1779701611018,-3.8550003,6.19995,17.433,17.21227,0.118525,0.152625,-0.142725,-6.893785,109.4104333,34.39999771118164,0.03911889,5.071,0.0
1779701611018,-1.7740501,9.79905,11.805,15.797901,0.118525,0.152625,-0.142725,-6.893785,109.4104333,34.39999771118164,0.03911889,5.071,0.0
1779701611019,8.373,10.36005,-10.942051,16.95039,0.118525,0.152625,-0.142725,-6.893785,109.4104333,34.39999771118164,0.03911889,5.071,0.0
1779701611025,-1.47,11.799001,-7.0860004,14.463324,-0.68915,-0.06985,0.300025,-6.893785,109.4104333,34.39999771118164,0.03911889,5.071,0.0
1779701611044,-0.37500003,6.9970503,10.30305,12.860683,-0.1082125,-0.027224999,0.0840125,-6.893785,109.4104333,34.39999771118164,0.03911889,5.071,0.0
1779701611046,0.06705,7.143,8.658,11.551684,-0.1082125,-0.027224999,0.0840125,-6.893785,109.4104333,34.39999771118164,0.03911889,5.071,0.0
1779701611055,-3.04305,7.8859506,4.761,10.071388,0.0961125,-0.292325,0.3532375,-6.893785,109.4104333,34.39999771118164,0.03911889,5.071,0.0
1779701611073,3.1039503,8.71905,1.60395,9.528701,0.2228875,-0.226325,0.2297625,-6.893785,109.4104333,34.39999771118164,0.03911889,5.071,0.0
1779701611075,2.4400501,8.820001,3.4050002,9.717128,0.3452625,0.495275,-0.3097875,-6.893785,109.4104333,34.39999771118164,0.03911889,5.071,0.0
1779701611086,-4.40595,13.375051,-4.32,13.72726,-0.389125,-0.3870625,0.252175,-6.893785,109.4104333,34.39999771118164,0.03911889,5.071,0.0
1779701611096,1.1179501,10.70505,0.795,11.379522,-0.144375,-0.2806375,0.2649625,-6.893785,109.4104333,34.39999771118164,0.03911889,5.071,0.0
1779701611106,8.701051,7.7779503,1.5660001,11.696127,-0.144375,-0.1379125,0.0925375,-6.893785,109.4104333,34.39999771118164,0.03911889,5.071,0.0
1779701611123,-3.0499501,11.03295,-0.48600003,11.50488,0.0100375,-0.0166375,0.0584375,-6.893785,109.4104333,34.39999771118164,0.03911889,5.071,0.0
1779701611126,-6.1780505,11.05395,-1.64205,12.516398,-0.3837625,-0.1230625,0.465025,-6.893785,109.4104333,34.39999771118164,0.03911889,5.071,0.0
1779701611136,7.76205,6.04395,2.2770002,10.581438,0.106837496,0.23773749,-0.1458875,-6.893785,109.4104333,34.39999771118164,0.03911889,5.071,0.0
1779701611154,3.2710502,8.55405,2.9310002,9.808874,-0.223025,0.1557875,-0.0906125,-6.893785,109.4104333,34.39999771118164,0.03911889,5.071,0.0
1779701611156,-12.597,8.104051,21.61005,22.99667,-0.223025,0.1557875,-0.0906125,-6.893785,109.4104333,34.39999771118164,0.03911889,5.071,0.0
1779701611172,1.353,8.853001,8.787001,14.636629,0.25575,0.0653125,0.0169125,-6.893785,109.4104333,34.39999771118164,0.03911889,5.071,0.0
1779701611176,3.7840502,12.18,1.7910001,13.230852,-0.086899996,-0.1049125,-0.026675,-6.893785,109.4104333,34.39999771118164,0.03911889,5.071,0.0
1779701611187,0.81195,8.70705,5.34105,10.843685,0.313225,-0.2602875,0.2935625,-6.893785,109.4104333,34.39999771118164,0.03911889,5.071,0.0
1779701611197,3.8730001,11.026051,-5.556,12.5207205,0.4153875,0.3111625,-0.0160875,-6.893785,109.4104333,34.39999771118164,0.03911889,5.071,0.0
1779701611207,-4.1020503,11.98095,2.2770002,12.797588,-0.4987125,-0.0251625,0.22659999,-6.893785,109.4104333,34.39999771118164,0.03911889,5.071,0.0
1779701611223,-1.2250501,10.09395,7.49805,12.666446,0.004675,0.2525875,-0.0352,-6.893785,109.4104333,34.39999771118164,0.03911889,5.071,0.0
1779701611227,10.62195,11.64795,-7.7299504,16.57899,-0.5061375,0.183425,-0.190575,-6.893785,109.4104333,34.39999771118164,0.03911889,5.071,0.0
1779701611237,-0.58605003,9.1380005,9.237,13.720987,-0.3592875,-0.0240625,0.047849998,-6.893785,109.4104333,34.39999771118164,0.03911889,5.071,0.0
1779701611247,-4.24095,8.904,6.9600005,12.40098,0.2228875,0.021724999,0.054175,-6.893785,109.4104333,34.39999771118164,0.03911889,5.071,0.0
1779701611257,-5.4019504,10.06005,7.7860503,13.536655,0.347325,-0.1879625,0.3361875,-6.893785,109.4104333,34.39999771118164,0.03911889,5.071,0.0
1779701611277,5.7460504,8.952001,-1.113,11.263748,0.2217875,-0.0017875,0.104225,-6.893785,109.4104333,34.39999771118164,0.03911889,5.071,0.0
1779701611278,3.3720002,9.435,3.9610503,10.871966,0.2217875,-0.0017875,0.104225,-6.893785,109.4104333,34.39999771118164,0.03911889,5.071,0.0
1779701611288,-1.7119501,10.42905,-0.555,10.640945,0.3675375,0.1472625,-0.059675,-6.893785,109.4104333,34.39999771118164,0.03911889,5.071,0.0
1779701611316,2.1030002,9.694051,-9.48795,13.109437,0.0664125,0.0631125,0.0072875,-6.893785,109.4104333,34.39999771118164,0.03911889,5.071,0.0
1779701611317,-0.94005007,5.6940002,4.3060503,8.382298,0.0664125,0.0631125,0.0072875,-6.893785,109.4104333,34.39999771118164,0.03911889,5.071,0.0
1779701611319,2.0329502,7.1389503,1.5799501,7.7477026,0.0664125,0.0631125,0.0072875,-6.893785,109.4104333,34.39999771118164,0.03911889,5.071,0.0
1779701611328,-3.0360003,6.3190503,17.799002,16.853443,-0.631675,0.1078,0.14575,-6.893785,109.4104333,34.39999771118164,0.03911889,5.071,0.0
1779701611338,-3.7740002,7.9360504,16.12305,18.060587,0.9156125,0.051425,0.379775,-6.893785,109.4104333,34.39999771118164,0.03911889,5.071,0.0
1779701611360,3.8149502,14.118001,-16.04595,20.98049,0.3749625,0.0429,0.1722875,-6.893785,109.4104333,34.39999771118164,0.03911889,5.071,0.0
1779701611361,5.6569505,11.434951,-10.597051,17.463964,-0.418825,-0.0070125,0.0669625,-6.893785,109.4104333,34.39999771118164,0.03911889,5.071,0.0
1779701611372,3.2910001,7.4670005,8.643001,13.001971,0.0143,0.0174625,0.0402875,-6.893785,109.4104333,34.39999771118164,0.03911889,5.071,0.0
1779701611399,-2.7940502,8.13,11.781,14.267664,0.20899999,0.2217875,0.297825,-6.893785,109.4104333,34.39999771118164,0.03911889,5.071,0.0
1779701611400,-4.7460003,6.4680004,7.0789504,11.412826,0.20899999,0.2217875,0.297825,-6.893785,109.4104333,34.39999771118164,0.03911889,5.071,0.0
1779701611407,-2.25,8.748,6.0210004,10.966986,-0.1230625,0.1153625,0.084975,-6.893785,109.4104333,34.39999771118164,0.03911889,5.071,0.0
1779701611410,8.36295,7.8550506,-2.04495,11.516833,-0.1230625,0.1153625,0.084975,-6.893785,109.4104333,34.39999771118164,0.03911889,5.071,0.0
1779701611434,-0.73395,10.20705,-2.502,10.731228,0.2633125,0.0749375,0.265925,-6.893785,109.4104333,34.39999771118164,0.03911889,5.071,0.0
1779701611439,4.953,12.681001,-10.102051,15.708344,-0.4327125,0.1791625,0.2553375,-6.893785,109.4104333,34.39999771118164,0.03911889,5.071,0.0
1779701611459,2.7900002,8.35305,4.9170003,11.210749,0.119625,0.0471625,0.2957625,-6.893785,109.4104333,34.39999771118164,0.03911889,5.071,0.0
1779701611480,0.25395,11.3869505,5.1150002,12.230635,-0.2508,-0.117699996,0.2234375,-6.893785,109.4104333,34.39999771118164,0.03911889,5.071,0.0
1779701611484,6.60795,6.3840003,5.56995,11.041747,-0.224125,-0.117699996,0.28187498,-6.893785,109.4104333,34.39999771118164,0.03911889,5.071,0.0
1779701611489,0.25905,12.385951,4.15005,12.660582,0.19415,0.119625,-0.0224125,-6.893785,109.4104333,34.39999771118164,0.03911889,5.071,0.0
1779701611494,1.9570501,9.316051,-1.2930001,10.21756,0.19415,0.119625,-0.0224125,-6.893785,109.4104333,34.39999771118164,0.03911889,5.071,0.0
1779701611517,3.62595,9.382951,4.761,10.946704,-0.1560625,0.09185,0.1276,-6.893785,109.4104333,34.39999771118164,0.03911889,5.071,0.0
1779701611518,-6.36495,10.483951,9.666,14.682088,0.1643125,0.4962375,-0.074525,-6.893785,109.4104333,34.39999771118164,0.03911889,5.071,0.0
1779701611518,1.11405,7.2439504,2.62695,9.164961,0.1643125,0.4962375,-0.074525,-6.893785,109.4104333,34.39999771118164,0.03911889,5.071,0.0
1779701611518,8.65995,8.191951,-5.091,12.202827,0.1643125,0.4962375,-0.074525,-6.893785,109.4104333,34.39999771118164,0.03911889,5.071,0.0
1779701611520,-6.9690003,13.312951,-0.25095,14.4636,-0.3177625,0.132275,-0.2182125,-6.893785,109.4104333,34.39999771118164,0.03911889,5.071,0.0
1779701611525,-8.09895,13.963951,8.073,17.33174,-0.307175,0.1153625,0.3916,-6.893785,109.4104333,34.39999771118164,0.03911889,5.071,0.0
1779701611547,6.1860003,6.66405,4.38495,11.542147,-0.3166625,0.2057,-0.0341,-6.893785,109.4104333,34.39999771118164,0.03911889,5.071,0.0
1779701611548,7.39305,9.77805,-7.8810005,13.966975,-0.3166625,0.2057,-0.0341,-6.893785,109.4104333,34.39999771118164,0.03911889,5.071,0.0
1779701611548,9.81,10.85805,-3.4360502,14.81843,-0.3166625,0.2057,-0.0341,-6.893785,109.4104333,34.39999771118164,0.03911889,5.071,0.0
1779701611550,3.6670501,11.349001,0.66495,12.519894,-0.2954875,0.2303125,-0.2501125,-6.893785,109.4104333,34.39999771118164,0.03911889,5.071,0.0
1779701611552,-5.1010504,12.891001,4.15005,14.081102,-0.2954875,0.2303125,-0.2501125,-6.893785,109.4104333,34.39999771118164,0.03911889,5.071,0.0
1779701611557,-4.875,8.307,9.462001,13.617741,-0.3592875,0.1153625,-0.0906125,-6.893785,109.4104333,34.39999771118164,0.03911889,5.071,0.0
1779701611563,0.093,8.116051,14.2570505,15.847998,-0.29975,0.0226875,0.102025,-6.893785,109.4104333,34.39999771118164,0.03911889,5.071,0.0
1779701611576,2.5510502,9.87405,0.20805001,11.329914,-0.8190875,0.29947498,-0.1522125,-6.893785,109.4104333,34.39999771118164,0.03911889,5.071,0.0
1779701611576,1.81305,11.466001,-1.8580501,11.670958,-0.8190875,0.29947498,-0.1522125,-6.893785,109.4104333,34.39999771118164,0.03911889,5.071,0.0
1779701611578,-6.1660504,6.0150003,20.944052,20.45121,-0.0209,0.1280125,-1.375E-4,-6.893785,109.4104333,34.39999771118164,0.03911889,5.071,0.0
1779701611585,-8.6310005,3.3619502,28.23195,27.86034,0.7038625,-0.16775,0.2063875,-6.893785,109.4104333,34.39999771118164,0.03911889,5.071,0.0
1779701611588,2.5069501,7.0399504,6.78,13.644306,0.54202497,0.0578875,0.084975,-6.893785,109.4104333,34.39999771118164,0.03911889,5.071,0.0
1779701611593,7.2570004,8.928,-6.8299503,13.432774,-0.2156,0.332475,-0.14795,-6.893785,109.4104333,34.39999771118164,0.03911889,5.071,0.0
1779701611622,-2.5570502,6.30495,5.4079504,9.639509,-0.3784,0.32065,-0.396,-6.893785,109.4104333,34.39999771118164,0.03911889,5.071,0.0
1779701611622,-6.6550503,10.68795,13.243951,16.546776,-0.3784,0.32065,-0.396,-6.893785,109.4104333,34.39999771118164,0.03911889,5.071,0.0
1779701611622,-1.14405,14.23305,-4.0300503,15.178776,-0.3784,0.32065,-0.396,-6.893785,109.4104333,34.39999771118164,0.03911889,5.071,0.0
1779701611622,10.15995,12.10095,-21.705002,24.513405,-0.3784,0.32065,-0.396,-6.893785,109.4104333,34.39999771118164,0.03911889,5.071,0.0
1779701611622,15.58695,9.98595,-8.99295,21.366858,-0.3784,0.32065,-0.396,-6.893785,109.4104333,34.39999771118164,0.03911889,5.071,0.0
1779701611624,-1.098,11.6650505,8.01105,15.628186,-0.3784,0.32065,-0.396,-6.893785,109.4104333,34.39999771118164,0.03911889,5.071,0.0
1779701611630,-1.8859501,11.835001,3.9060001,13.209475,0.06325,0.1865875,-0.0224125,-6.893785,109.4104333,34.39999771118164,0.03911889,5.071,0.0
1779701611651,6.3490505,10.73805,-6.46395,13.88179,0.1865875,-0.0730125,-0.1128875,-6.893785,109.4104333,34.39999771118164,0.03911889,5.071,0.0
1779701611651,-2.6119502,12.831,7.9180503,15.017988,0.1865875,-0.0730125,-0.1128875,-6.893785,109.4104333,34.39999771118164,0.03911889,5.071,0.0
1779701611651,-3.58905,2.87295,20.968052,20.176495,0.1865875,-0.0730125,-0.1128875,-6.893785,109.4104333,34.39999771118164,0.03911889,5.071,0.0
1779701611651,7.2709503,-1.9540501,9.867001,13.964415,-0.55935,0.1419,-0.2853125,-6.893785,109.4104333,34.39999771118164,0.03911889,5.071,0.0
1779701611656,0.44295,6.3169503,-1.5180001,8.002376,0.4728625,0.0823625,-0.437525,-6.893785,109.4104333,34.39999771118164,0.03911889,5.071,0.0
1779701611659,-13.750951,18.466951,-7.0740004,20.86966,0.4728625,0.0823625,-0.437525,-6.893785,109.4104333,34.39999771118164,0.03911889,5.071,0.0
1779701611677,-5.77605,12.28995,-4.87305,15.715919,0.3356375,0.0163625,0.199925,-6.893785,109.4104333,34.39999771118164,0.03911889,5.071,0.0
1779701611678,2.9220002,6.0100503,9.061951,12.150834,0.3356375,0.0163625,0.199925,-6.893785,109.4104333,34.39999771118164,0.03911889,5.071,0.0
1779701611678,3.90105,5.2540503,12.4470005,13.680086,0.3356375,0.0163625,0.199925,-6.893785,109.4104333,34.39999771118164,0.03911889,5.071,0.0
1779701611678,14.6980505,3.28695,2.76795,14.986687,0.3356375,0.0163625,0.199925,-6.893785,109.4104333,34.39999771118164,0.03911889,5.071,0.0
1779701611685,5.1990004,13.749001,1.0849501,14.788636,0.199375,0.443025,-0.3650625,-6.893785,109.4104333,34.39999771118164,0.03911889,5.071,0.0
1779701611689,-13.276951,18.87705,6.0330005,22.040998,0.199375,0.443025,-0.3650625,-6.893785,109.4104333,34.39999771118164,0.03911889,5.071,0.0
1779701611693,-5.0290504,13.785001,9.30195,18.307125,-0.1848,-0.0188375,0.14245,-6.893785,109.4104333,34.39999771118164,0.03911889,5.071,0.0
1779701611716,7.0939503,7.7160006,0.21495001,12.048349,-0.10175,0.0748,-0.2193125,-6.893785,109.4104333,34.39999771118164,0.03911889,5.071,0.0
1779701611716,7.7190003,7.392,1.4800501,11.04134,-0.10175,0.0748,-0.2193125,-6.893785,109.4104333,34.39999771118164,0.03911889,5.071,0.0
1779701611724,0.91005003,11.890051,-0.67695004,11.763489,0.03135,-0.0347875,-0.0298375,-6.893785,109.4104333,34.39999771118164,0.03911889,5.071,0.0
1779701611724,-0.32205,10.798051,-1.00995,11.032665,0.03135,-0.0347875,-0.0298375,-6.893785,109.4104333,34.39999771118164,0.03911889,5.071,0.0
1779701611724,-4.3170004,9.498,0.45495003,10.560904,0.03135,-0.0347875,-0.0298375,-6.893785,109.4104333,34.39999771118164,0.03911889,5.071,0.0
1779701611725,1.57605,10.54695,0.66495,10.659995,0.03135,-0.0347875,-0.0298375,-6.893785,109.4104333,34.39999771118164,0.03911889,5.071,0.0
1779701611729,8.172,5.53905,-3.4939501,10.509889,-0.1623875,-0.2539625,-0.3257375,-6.893785,109.4104333,34.39999771118164,0.03911889,5.071,0.0
1779701611735,1.56105,7.0090504,4.91895,9.065184,-0.5115,0.242,-0.18315,-6.893785,109.4104333,34.39999771118164,0.03911889,5.071,0.0
1779701611741,-2.56395,3.522,24.63195,21.824413,-0.5115,0.242,-0.18315,-6.893785,109.4104333,34.39999771118164,0.03911889,5.071,0.0
1779701611744,-2.9550002,-0.010050001,14.53005,16.226875,0.250525,0.1111,-0.189475,-6.893785,109.4104333,34.39999771118164,0.03911889,5.071,0.0
1779701611758,3.5779502,10.66905,-6.4159503,13.608225,-0.8413625,-0.1071125,-0.1214125,-6.893785,109.4104333,34.39999771118164,0.03911889,5.071,0.0
1779701611759,-5.2510505,17.605051,-12.280951,20.400255,-0.8413625,-0.1071125,-0.1214125,-6.893785,109.4104333,34.39999771118164,0.03911889,5.071,0.0
1779701611759,-8.889001,12.58695,6.19995,17.36788,-0.8413625,-0.1071125,-0.1214125,-6.893785,109.4104333,34.39999771118164,0.03911889,5.071,0.0
1779701611765,4.7400002,0.61695004,17.43795,17.938549,-0.4156625,-0.0251625,0.2382875,-6.893785,109.4104333,34.39999771118164,0.03911889,5.071,0.0
1779701611772,8.347051,5.4019504,2.181,11.730873,0.7954375,-0.0666875,-0.18425,-6.893785,109.4104333,34.39999771118164,0.03911889,5.071,0.0
1779701611775,7.03905,14.637001,-17.30595,21.333092,-0.117699996,0.2036375,-0.27885,-6.893785,109.4104333,34.39999771118164,0.03911889,5.071,0.0
1779701611779,5.4630003,12.934051,-15.7560005,21.149948,-0.117699996,0.2036375,-0.27885,-6.893785,109.4104333,34.39999771118164,0.03911889,5.071,0.0
1779701611797,-8.920951,12.345,9.988951,18.801449,0.1546875,-0.2380125,-0.502425,-6.893785,109.4104333,34.39999771118164,0.03911889,5.071,0.0
1779701611798,-7.21995,7.07595,15.517051,18.575972,0.1546875,-0.2380125,-0.502425,-6.893785,109.4104333,34.39999771118164,0.03911889,5.071,0.0
1779701611798,12.628951,0.25500003,3.6760502,14.239643,0.1546875,-0.2380125,-0.502425,-6.893785,109.4104333,34.39999771118164,0.03911889,5.071,0.0
1779701611800,7.42005,9.45495,-1.218,12.512272,-0.00275,0.4420625,-0.4503125,-6.893785,109.4104333,34.39999771118164,0.03911889,5.071,0.0
1779701611819,-7.55805,11.538,7.22805,14.960237,-0.3007125,-0.0273625,-0.16293749,-6.893785,109.4104333,34.39999771118164,0.03911889,5.071,0.0
1779701611819,-6.56895,13.786951,9.634951,17.437828,-0.3007125,-0.0273625,-0.16293749,-6.893785,109.4104333,34.39999771118164,0.03911889,5.071,0.0
1779701611819,-0.31995,10.530001,2.6490002,12.177808,-0.3007125,-0.0273625,-0.16293749,-6.893785,109.4104333,34.39999771118164,0.03911889,5.071,0.0
1779701611820,0.984,5.41905,8.217,10.349235,-0.3007125,-0.0273625,-0.16293749,-6.893785,109.4104333,34.39999771118164,0.03911889,5.071,0.0
1779701611824,6.8880005,2.2840502,6.1600504,9.684892,-0.0474375,0.4090625,-0.3683625,-6.893785,109.4104333,34.39999771118164,0.03911889,5.071,0.0
1779701611830,-0.20700002,5.907,14.64,14.567484,-0.0474375,0.4090625,-0.3683625,-6.893785,109.4104333,34.39999771118164,0.03911889,5.071,0.0
1779701611835,-16.45305,14.41905,9.87705,22.116297,0.3686375,0.0078375,-0.50875,-6.893785,109.4104333,34.39999771118164,0.03911889,5.071,0.0
1779701611842,2.46705,12.89595,2.5500002,15.123371,-0.044275,-0.1848,0.0031625,-6.893785,109.4104333,34.39999771118164,0.03911889,5.071,0.0
1779701611845,9.891001,7.6650004,-4.38705,13.632756,-0.044275,-0.1848,0.0031625,-6.893785,109.4104333,34.39999771118164,0.03911889,5.071,0.0
1779701611858,3.1969502,4.58505,5.8390503,9.1930895,0.43147498,0.0237875,-0.3576375,-6.893785,109.4104333,34.39999771118164,0.03911889,5.071,0.0
1779701611858,-1.3429501,7.85895,15.225,15.587621,0.6782875,0.12595,-0.18425,-6.893785,109.4104333,34.39999771118164,0.03911889,5.071,0.0
1779701611860,-7.2750006,14.379001,0.52695,16.016119,0.6782875,0.12595,-0.18425,-6.893785,109.4104333,34.39999771118164,0.03911889,5.071,0.0
1779701611872,-0.01305,15.63405,-15.097951,20.590519,-0.664675,0.0089375,-0.198,-6.893785,109.4104333,34.39999771118164,0.03911889,5.071,0.0
1779701611873,9.166051,9.84,-10.530001,17.782024,-0.664675,0.0089375,-0.198,-6.893785,109.4104333,34.39999771118164,0.03911889,5.071,0.0
1779701611876,4.059,5.96505,9.13395,12.868294,-0.664675,0.0089375,-0.198,-6.893785,109.4104333,34.39999771118164,0.03911889,5.071,0.0
1779701611879,-3.0169501,7.8090005,12.4129505,14.55134,-0.2156,0.1557875,-0.2586375,-6.893785,109.4104333,34.39999771118164,0.03911889,5.071,0.0
1779701611891,2.6130002,10.159051,2.33205,11.50692,0.09625,-0.2699125,-0.126775,-6.893785,109.4104333,34.39999771118164,0.03911889,5.071,0.0
1779701611891,-1.4269501,7.8690004,2.52195,9.00983,-0.26345,-0.18053749,-0.1522125,-6.893785,109.4104333,34.39999771118164,0.03911889,5.071,0.0
1779701611895,-1.2970501,11.251051,7.7790003,12.793783,-0.0847,-0.062425,-0.297,-6.893785,109.4104333,34.39999771118164,0.03911889,5.071,0.0
1779701611901,-1.9060501,8.20905,5.664,10.681906,-0.0847,-0.062425,-0.297,-6.893785,109.4104333,34.39999771118164,0.03911889,5.071,0.0
1779701611907,-2.9520001,11.878051,17.25105,19.057869,0.0089375,-0.2508,-0.08525,-6.893785,109.4104333,34.39999771118164,0.03911889,5.071,0.0
1779701611910,0.26295,5.6460004,15.4140005,16.94566,0.0089375,-0.2508,-0.08525,-6.893785,109.4104333,34.39999771118164,0.03911889,5.071,0.0
1779701611926,6.8260503,7.32495,4.8570004,12.291817,0.1951125,-0.1986875,-0.15125,-6.893785,109.4104333,34.39999771118164,0.03911889,5.071,0.0
1779701611927,2.8240502,11.514001,-0.13305001,11.943179,-0.1060125,-0.36574998,-0.009625,-6.893785,109.4104333,34.39999771118164,0.03911889,5.071,0.0
1779701611927,-10.156051,15.556951,5.8510504,17.971169,-0.1060125,-0.36574998,-0.009625,-6.893785,109.4104333,34.39999771118164,0.03911889,5.071,0.0
1779701611933,-3.5629501,12.54405,6.0210004,15.084759,-0.1060125,-0.36574998,-0.009625,-6.893785,109.4104333,34.39999771118164,0.03911889,5.071,0.0
1779701611936,5.0149503,6.8220005,6.2509503,11.436502,-0.0559625,-0.2773375,-0.16293749,-6.893785,109.4104333,34.39999771118164,0.03911889,5.071,0.0
1779701611941,4.25295,9.27,4.7320504,11.281977,-0.0804375,0.067375,-0.189475,-6.893785,109.4104333,34.39999771118164,0.03911889,5.071,0.0
1779701611946,3.5449502,7.1530504,8.42805,11.543456,0.0185625,0.084425,-0.41195,-6.893785,109.4104333,34.39999771118164,0.03911889,5.071,0.0
1779701611959,-5.3830504,11.251051,9.163051,14.689964,-0.1857625,-0.2072125,0.0020625,-6.893785,109.4104333,34.39999771118164,0.03911889,5.071,0.0
1779701611960,-8.797951,11.44995,7.7760005,16.058273,-0.1857625,-0.2072125,0.0020625,-6.893785,109.4104333,34.39999771118164,0.03911889,5.071,0.0
1779701611966,-2.7510002,10.156051,9.54405,14.576224,-0.0815375,-0.3498,0.006325,-6.893785,109.4104333,34.39999771118164,0.03911889,5.071,0.0
1779701611974,1.64295,3.79695,10.111051,11.65502,-0.0815375,-0.3498,0.006325,-6.893785,109.4104333,34.39999771118164,0.03911889,5.071,0.0
1779701611975,4.26795,0.16905001,11.553,12.184841,0.42075,-0.33165,-0.3619,-6.893785,109.4104333,34.39999771118164,0.03911889,5.071,0.0
1779701611977,-1.3039501,6.9949503,3.6780002,8.84483,0.2217875,0.3729,-0.1032625,-6.893785,109.4104333,34.39999771118164,0.03911889,5.071,0.0
1779701611992,-9.41205,13.144951,8.28405,16.30173,-0.26455,-0.0422125,-0.2374625,-6.893785,109.4104333,34.39999771118164,0.03911889,5.071,0.0
1779701611993,-2.7940502,14.188951,2.8660502,15.054508,-0.26455,-0.0422125,-0.2374625,-6.893785,109.4104333,34.39999771118164,0.03911889,5.071,0.0
1779701611993,15.445051,2.8900502,-14.736001,20.24439,-0.26455,-0.0422125,-0.2374625,-6.893785,109.4104333,34.39999771118164,0.03911889,5.071,0.0
1779701611997,15.297001,4.5160503,-7.0909505,18.012821,-0.26455,-0.0422125,-0.2374625,-6.893785,109.4104333,34.39999771118164,0.03911889,5.071,0.0
1779701612002,-10.87005,11.446951,11.704051,19.323643,-0.2475,0.491975,-0.6259,-6.893785,109.4104333,34.39999771118164,0.03911889,5.071,0.0
1779701612007,-13.119,18.61095,10.66905,23.981258,0.19305,-0.0103124995,-0.0820875,-6.893785,109.4104333,34.39999771118164,0.03911889,5.071,0.0
1779701612011,3.9900002,14.568001,-9.8880005,19.23884,-0.59015,-0.1890625,0.11165,-6.893785,109.4104333,34.39999771118164,0.03911889,5.071,0.0
1779701612033,12.043951,10.2949505,-3.2280002,16.783617,-0.3667125,0.2068,-0.159775,-6.893785,109.4104333,34.39999771118164,0.03911889,5.071,0.0
1779701612034,6.7489505,4.15395,12.229051,15.014602,-0.3667125,0.2068,-0.159775,-6.893785,109.4104333,34.39999771118164,0.03911889,5.071,0.0
1779701612037,-0.61695004,6.576,15.430951,16.430979,-0.3667125,0.2068,-0.159775,-6.893785,109.4104333,34.39999771118164,0.03911889,5.071,0.0
1779701612037,-10.34595,13.915951,2.5530002,17.308125,-0.3667125,0.2068,-0.159775,-6.893785,109.4104333,34.39999771118164,0.03911889,5.071,0.0
1779701612042,-13.9140005,12.336,9.92205,20.32291,0.1771,0.0567875,0.2479125,-6.893785,109.4104333,34.39999771118164,0.03911889,5.071,0.0
1779701612043,-2.112,5.6179504,13.929001,16.198212,0.1771,0.0567875,0.2479125,-6.893785,109.4104333,34.39999771118164,0.03911889,5.071,0.0
1779701612047,8.847,-0.52005005,6.576,12.068092,0.1771,0.0567875,0.2479125,-6.893785,109.4104333,34.39999771118164,0.03911889,5.071,0.0
1779701612059,6.9600005,7.3350005,0.23700002,10.505096,0.2281125,-0.3040125,-0.189475,-6.893785,109.4104333,34.39999771118164,0.03911889,5.071,0.0
1779701612059,-6.77505,7.5529504,16.726051,17.751383,0.2281125,-0.3040125,-0.189475,-6.893785,109.4104333,34.39999771118164,0.03911889,5.071,0.0
1779701612062,-11.397,12.664051,16.267052,22.395103,0.7613375,0.002475,0.2926,-6.893785,109.4104333,34.39999771118164,0.03911889,5.071,0.0
1779701612067,0.46005002,9.627001,-5.1010504,13.202745,0.7613375,0.002475,0.2926,-6.893785,109.4104333,34.39999771118164,0.03911889,5.071,0.0
1779701612074,9.61095,12.25395,-9.73005,17.331032,-0.4731375,0.230175,-0.059675,-6.893785,109.4104333,34.39999771118164,0.03911889,5.071,0.0
1779701612077,2.9670002,5.30205,7.1700006,10.984663,-0.0581625,0.0248875,-0.076725,-6.893785,109.4104333,34.39999771118164,0.03911889,5.071,0.0
1779701612093,1.5970501,5.103,11.812051,12.569689,-0.4466,-0.3774375,0.1606,-6.893785,109.4104333,34.39999771118164,0.03911889,5.071,0.0
1779701612094,-1.0530001,12.063001,0.483,12.208739,-0.4466,-0.3774375,0.1606,-6.893785,109.4104333,34.39999771118164,0.03911889,5.071,0.0
1779701612094,-9.081,14.500951,9.11295,17.94995,-0.4466,-0.3774375,0.1606,-6.893785,109.4104333,34.39999771118164,0.03911889,5.071,0.0
1779701612098,-2.91405,4.37895,18.70005,19.130571,-0.4466,-0.3774375,0.1606,-6.893785,109.4104333,34.39999771118164,0.03911889,5.071,0.0
1779701612103,11.007001,1.89795,11.802001,16.825647,0.3069,-0.0166375,0.2935625,-6.893785,109.4104333,34.39999771118164,0.03911889,5.071,0.0
1779701612107,1.02495,8.99205,-9.055051,13.607049,0.854975,-0.161425,-0.3843125,-6.893785,109.4104333,34.39999771118164,0.03911889,5.071,0.0
1779701612112,-8.616,15.777,13.678051,20.792175,0.0132,-0.3763375,-0.059675,-6.893785,109.4104333,34.39999771118164,0.03911889,5.071,0.0
1779701612127,-11.562,10.432051,18.94695,23.778744,-0.3815625,0.6868125,-0.2597375,-6.893785,109.4104333,34.39999771118164,0.03911889,5.071,0.0
1779701612128,6.3900003,5.91195,3.7690501,12.344751,-0.3815625,0.6868125,-0.2597375,-6.893785,109.4104333,34.39999771118164,0.03911889,5.071,0.0
1779701612128,16.522951,7.0360503,-15.265051,21.324795,-0.3815625,0.6868125,-0.2597375,-6.893785,109.4104333,34.39999771118164,0.03911889,5.071,0.0
1779701612134,2.11905,8.022,6.08295,12.495445,0.1398375,-0.1634875,-0.4173125,-6.893785,109.4104333,34.39999771118164,0.03911889,5.071,0.0
1779701612140,-12.736051,12.432,11.95995,19.653484,0.6452875,0.1419,0.202125,-6.893785,109.4104333,34.39999771118164,0.03911889,5.071,0.0
1779701612142,-3.5010002,13.9789505,-2.87595,15.686592,0.6452875,0.1419,0.202125,-6.893785,109.4104333,34.39999771118164,0.03911889,5.071,0.0
1779701612147,5.379,10.38405,-18.448051,20.61128,0.2644125,-0.439175,0.086075,-6.893785,109.4104333,34.39999771118164,0.03911889,5.071,0.0
1779701612161,4.10505,4.8850503,7.1010003,11.759611,0.562375,0.216425,-0.076725,-6.893785,109.4104333,34.39999771118164,0.03911889,5.071,0.0
1779701612162,0.58905005,2.157,17.42295,16.404598,0.562375,0.216425,-0.076725,-6.893785,109.4104333,34.39999771118164,0.03911889,5.071,0.0
1779701612163,-1.3879501,6.9469504,1.5130501,9.076137,0.562375,0.216425,-0.076725,-6.893785,109.4104333,34.39999771118164,0.03911889,5.071,0.0
1779701612171,-1.9530001,14.137051,-8.703,15.18774,0.2440625,-0.1401125,-0.11935,-6.893785,109.4104333,34.39999771118164,0.03911889,5.071,0.0
1779701612175,-8.274,9.45495,14.491951,18.381536,-0.1379125,-0.4593875,0.232925,-6.893785,109.4104333,34.39999771118164,0.03911889,5.071,0.0
1779701612178,-1.194,6.7549505,14.39805,16.435213,0.03135,-0.014575,0.51713747,-6.893785,109.4104333,34.39999771118164,0.03911889,5.071,0.0
1779701612184,12.5449505,1.23705,0.48105,13.379019,0.3091,0.1546875,0.34045,-6.893785,109.4104333,34.39999771118164,0.03911889,5.071,0.0
1779701612188,5.72205,5.23005,-1.065,8.935747,-0.33165,0.7250375,-0.2022625,-6.893785,109.4104333,34.39999771118164,0.03911889,5.071,0.0
1779701612193,-8.64795,7.1410503,21.18795,20.965652,-0.33165,0.7250375,-0.2022625,-6.893785,109.4104333,34.39999771118164,0.03911889,5.071,0.0
1779701612198,-9.799951,12.949051,6.4759502,18.179522,0.5729625,0.0886875,0.2712875,-6.893785,109.4104333,34.39999771118164,0.03911889,5.071,0.0
1779701612212,2.0959501,10.044001,-9.802051,14.987878,0.4027375,0.101475,0.2915,-6.893785,109.4104333,34.39999771118164,0.03911889,5.071,0.0
1779701612213,4.9360504,7.3110003,2.8930502,10.424449,-0.5773625,0.3909125,0.0807125,-6.893785,109.4104333,34.39999771118164,0.03911889,5.071,0.0
1779701612221,-0.65505004,0.33195,24.228,21.476192,0.81565,0.2930125,-0.077825,-6.893785,109.4104333,34.39999771118164,0.03911889,5.071,0.0
1779701612221,4.05705,10.209001,11.083951,16.779785,0.81565,0.2930125,-0.077825,-6.893785,109.4104333,34.39999771118164,0.03911889,5.071,0.0
1779701612224,1.4110501,14.709001,-10.552051,17.881886,0.81565,0.2930125,-0.077825,-6.893785,109.4104333,34.39999771118164,0.03911889,5.071,0.0
1779701612228,-2.95005,12.609,-0.37500003,13.940325,-0.9318375,0.3026375,-0.100099996,-6.893785,109.4104333,34.39999771118164,0.03911889,5.071,0.0
1779701612244,-9.14805,5.5669503,30.26505,28.47107,-0.9318375,0.3026375,-0.100099996,-6.893785,109.4104333,34.39999771118164,0.03911889,5.071,0.0
1779701612244,-6.95205,8.55405,21.382051,24.939077,0.242,-0.2849,-0.091575,-6.893785,109.4104333,34.39999771118164,0.03911889,5.071,0.0
1779701612244,9.324,11.875951,-4.6189504,17.619455,0.242,-0.2849,-0.091575,-6.893785,109.4104333,34.39999771118164,0.03911889,5.071,0.0
1779701612248,10.428,13.014001,-15.141001,21.543566,-0.5795625,0.5377625,-0.0798875,-6.893785,109.4104333,34.39999771118164,0.03911889,5.071,0.0
1779701612253,-0.19995001,10.599001,12.19995,17.238495,0.3463625,-0.2167,-0.1874125,-6.893785,109.4104333,34.39999771118164,0.03911889,5.071,0.0
1779701612258,-5.6680503,12.20205,5.7289505,15.146252,0.3463625,-0.2167,-0.1874125,-6.893785,109.4104333,34.39999771118164,0.03911889,5.071,0.0
1779701612264,5.81505,11.05395,-8.23305,14.996881,0.3218875,0.1313125,0.24035,-6.893785,109.4104333,34.39999771118164,0.03911889,5.071,0.0
1779701612277,5.322,7.5340505,-9.184051,13.412672,0.3102,-0.2369125,-0.16499999,-6.893785,109.4104333,34.39999771118164,0.03911889,5.071,0.0
1779701612277,-4.5540004,9.114,16.33605,18.084778,0.3102,-0.2369125,-0.16499999,-6.893785,109.4104333,34.39999771118164,0.03911889,5.071,0.0
1779701612278,-8.739,9.679951,7.0000505,15.4578285,0.3102,-0.2369125,-0.16499999,-6.893785,109.4104333,34.39999771118164,0.03911889,5.071,0.0
1779701612284,3.8890502,7.5670505,-4.0129504,10.617042,0.2451625,0.0301125,0.252175,-6.893785,109.4104333,34.39999771118164,0.03911889,5.071,0.0
1779701612289,1.60695,6.3310504,-7.3999505,10.019686,-0.76147497,0.4387625,0.01485,-6.893785,109.4104333,34.39999771118164,0.03911889,5.071,0.0
1779701612294,-3.1390502,6.5470505,23.09205,21.36923,0.1005125,-0.3592875,-0.24805,-6.893785,109.4104333,34.39999771118164,0.03911889,5.071,0.0
1779701612319,-8.46105,6.1810503,15.65295,19.342958,0.3037375,-0.096525,-0.1225125,-6.893785,109.4104333,34.39999771118164,0.03911889,5.071,0.0
1779701612320,5.7070503,9.64395,5.9149504,14.005663,0.3037375,-0.096525,-0.1225125,-6.893785,109.4104333,34.39999771118164,0.03911889,5.071,0.0
1779701612320,2.7919502,7.2180004,2.028,9.201498,0.3037375,-0.096525,-0.1225125,-6.893785,109.4104333,34.39999771118164,0.03911889,5.071,0.0
1779701612321,0.50295,9.76095,8.868,12.398194,0.3037375,-0.096525,-0.1225125,-6.893785,109.4104333,34.39999771118164,0.03911889,5.071,0.0
1779701612321,4.914,10.39305,5.56995,12.69922,0.3037375,-0.096525,-0.1225125,-6.893785,109.4104333,34.39999771118164,0.03911889,5.071,0.0
1779701612324,2.53395,14.347951,-3.49095,14.525738,-0.2134,-0.1709125,-0.16499999,-6.893785,109.4104333,34.39999771118164,0.03911889,5.071,0.0
1779701612329,3.6019502,8.70195,-3.85995,11.047765,-0.49115,-0.0166375,-0.2949375,-6.893785,109.4104333,34.39999771118164,0.03911889,5.071,0.0
1779701612351,1.4299501,6.14895,9.988951,11.662882,-0.49115,-0.0166375,-0.2949375,-6.893785,109.4104333,34.39999771118164,0.03911889,5.071,0.0
1779701612354,-11.91195,9.51,12.411,18.057564,-0.52635,0.12595,-0.0224125,-6.893785,109.4104333,34.39999771118164,0.03911889,5.071,0.0
1779701612355,-3.2010002,17.26695,-3.2400002,17.897541,-0.52635,0.12595,-0.0224125,-6.893785,109.4104333,34.39999771118164,0.03911889,5.071,0.0
1779701612355,4.7299504,12.036,-0.68205005,13.939522,-0.52635,0.12595,-0.0224125,-6.893785,109.4104333,34.39999771118164,0.03911889,5.071,0.0
1779701612355,0.75405,2.799,11.544001,12.309818,-0.52635,0.12595,-0.0224125,-6.893785,109.4104333,34.39999771118164,0.03911889,5.071,0.0
1779701612360,4.644,-2.11995,29.485052,26.400942,-0.52635,0.12595,-0.0224125,-6.893785,109.4104333,34.39999771118164,0.03911889,5.071,0.0
1779701612365,-9.62895,9.486,15.426001,21.688232,0.7305375,0.181225,0.14245,-6.893785,109.4104333,34.39999771118164,0.03911889,5.071,0.0
1779701612387,-8.691,15.636001,3.22305,18.879307,0.7305375,0.181225,0.14245,-6.893785,109.4104333,34.39999771118164,0.03911889,5.071,0.0
1779701612387,1.023,13.61505,-5.44995,15.536626,0.4378,-0.028324999,-0.05115,-6.893785,109.4104333,34.39999771118164,0.03911889,5.071,0.0
1779701612387,6.7849503,6.0610504,8.955001,13.319912,0.4378,-0.028324999,-0.05115,-6.893785,109.4104333,34.39999771118164,0.03911889,5.071,0.0
1779701612388,5.0940003,3.7090502,7.3309503,10.397493,0.4378,-0.028324999,-0.05115,-6.893785,109.4104333,34.39999771118164,0.03911889,5.071,0.0
1779701612389,8.48505,11.13105,0.30600002,13.279213,0.4378,-0.028324999,-0.05115,-6.893785,109.4104333,34.39999771118164,0.03911889,5.071,0.0
1779701612394,-4.7410502,14.652,-5.3310003,15.6931,-0.09955,-0.258225,-0.0798875,-6.893785,109.4104333,34.39999771118164,0.03911889,5.071,0.0
1779701612425,-4.05105,13.62705,-5.39295,15.302605,0.0441375,0.2525875,-0.1128875,-6.893785,109.4104333,34.39999771118164,0.03911889,5.071,0.0
1779701612425,5.18505,9.009001,0.93795,11.409954,0.0441375,0.2525875,-0.1128875,-6.893785,109.4104333,34.39999771118164,0.03911889,5.071,0.0
1779701612425,-0.37005,8.7960005,1.09905,9.379685,0.0441375,0.2525875,-0.1128875,-6.893785,109.4104333,34.39999771118164,0.03911889,5.071,0.0
1779701612425,3.9900002,5.6920505,8.37705,10.5843525,0.0441375,0.2525875,-0.1128875,-6.893785,109.4104333,34.39999771118164,0.03911889,5.071,0.0
1779701612425,-0.057000004,7.22205,8.752951,11.195211,0.0441375,0.2525875,-0.1128875,-6.893785,109.4104333,34.39999771118164,0.03911889,5.071,0.0
1779701612426,-5.63205,5.81895,13.837951,15.065741,0.0441375,0.2525875,-0.1128875,-6.893785,109.4104333,34.39999771118164,0.03911889,5.071,0.0
1779701612430,-3.85995,9.81105,-1.353,11.516759,-0.011275,0.1120625,0.150975,-6.893785,109.4104333,34.39999771118164,0.03911889,5.071,0.0
1779701612448,3.2209501,10.936951,3.1729503,11.771074,-0.011275,0.1120625,0.150975,-6.893785,109.4104333,34.39999771118164,0.03911889,5.071,0.0
1779701612449,-7.3690505,7.80705,9.61095,13.881527,-0.1720125,0.003575,0.216975,-6.893785,109.4104333,34.39999771118164,0.03911889,5.071,0.0
1779701612449,5.2110004,1.881,15.687,16.085543,0.2547875,-0.061325,-0.2448875,-6.893785,109.4104333,34.39999771118164,0.03911889,5.071,0.0
1779701612452,3.9760501,2.49705,13.675051,14.783993,0.7134875,-0.1507,-0.207625,-6.893785,109.4104333,34.39999771118164,0.03911889,5.071,0.0
1779701612456,-6.5470505,14.059951,-0.77295005,15.379836,0.7134875,-0.1507,-0.207625,-6.893785,109.4104333,34.39999771118164,0.03911889,5.071,0.0
1779701612460,4.99305,13.91205,-10.2640505,17.47211,0.448525,-0.063525,0.1606,-6.893785,109.4104333,34.39999771118164,0.03911889,5.071,0.0
1779701612465,0.50805,11.27505,-9.22305,15.154941,-0.3815625,-0.3752375,-0.3257375,-6.893785,109.4104333,34.39999771118164,0.03911889,5.071,0.0
1779701612487,-2.38695,1.9920001,19.150051,18.551607,-0.7924125,-0.13585,0.0435875,-6.893785,109.4104333,34.39999771118164,0.03911889,5.071,0.0
1779701612487,0.156,2.5900502,15.663001,16.411497,-0.7924125,-0.13585,0.0435875,-6.893785,109.4104333,34.39999771118164,0.03911889,5.071,0.0
1779701612487,4.59795,10.365001,-0.37305,12.358459,-0.7924125,-0.13585,0.0435875,-6.893785,109.4104333,34.39999771118164,0.03911889,5.071,0.0
1779701612488,-2.59995,14.629951,-13.455001,18.508295,-0.7924125,-0.13585,0.0435875,-6.893785,109.4104333,34.39999771118164,0.03911889,5.071,0.0
1779701612492,0.82905006,9.688951,1.36995,11.557962,-0.7924125,-0.13585,0.0435875,-6.893785,109.4104333,34.39999771118164,0.03911889,5.071,0.0
1779701612496,-2.80395,2.502,20.872051,19.277716,-0.13255,-0.3540625,-0.24695,-6.893785,109.4104333,34.39999771118164,0.03911889,5.071,0.0
1779701612500,-0.94005007,5.721,6.1210504,10.600298,0.3452625,-0.3177625,0.0254375,-6.893785,109.4104333,34.39999771118164,0.03911889,5.071,0.0
1779701612509,10.891951,10.257001,-6.76095,15.25447,0.512325,0.014162499,0.1381875,-6.893785,109.4104333,34.39999771118164,0.03911889,5.071,0.0
1779701612511,-7.0690503,15.910951,-3.69195,17.289104,-1.0297375,0.104637496,0.04675,-6.893785,109.4104333,34.39999771118164,0.03911889,5.071,0.0
1779701612516,-11.931001,9.78495,24.168001,26.396854,0.0132,-0.5220875,0.1733875,-6.893785,109.4104333,34.39999771118164,0.03911889,5.071,0.0
1779701612528,1.6279501,6.66405,19.512001,21.825607,0.1802625,-0.142175,-0.3023625,-6.893785,109.4104333,34.39999771118164,0.03911889,5.071,0.0
1779701612529,14.83005,10.923,-5.3910003,19.718145,0.1802625,-0.142175,-0.3023625,-6.893785,109.4104333,34.39999771118164,0.03911889,5.071,0.0
1779701612530,9.87195,12.538951,-15.95505,21.996782,-1.009525,0.1419,-0.4800125,-6.893785,109.4104333,34.39999771118164,0.03911889,5.071,0.0
1779701612536,-3.249,9.531,9.37605,15.406446,-0.715825,0.331375,-0.41085,-6.893785,109.4104333,34.39999771118164,0.03911889,5.071,0.0
1779701612548,-20.50995,8.401051,37.75695,38.10652,-0.715825,0.331375,-0.41085,-6.893785,109.4104333,34.39999771118164,0.03911889,5.071,0.0
1779701612549,-12.814951,12.457951,16.774052,27.230156,0.3069,-0.26675,0.3042875,-6.893785,109.4104333,34.39999771118164,0.03911889,5.071,0.0
1779701612550,16.650002,7.3999505,-4.0729504,20.38207,0.3069,-0.26675,0.3042875,-6.893785,109.4104333,34.39999771118164,0.03911889,5.071,0.0
1779701612563,13.620001,6.55695,-3.1219501,16.424553,-0.142175,-0.3592875,-0.207625,-6.893785,109.4104333,34.39999771118164,0.03911889,5.071,0.0
1779701612563,-4.36005,6.4510503,21.30105,21.428532,0.19415,0.0089375,-0.2842125,-6.893785,109.4104333,34.39999771118164,0.03911889,5.071,0.0
1779701612564,-13.267951,9.00195,24.16995,27.489296,0.725175,-0.29975,-0.1288375,-6.893785,109.4104333,34.39999771118164,0.03911889,5.071,0.0
1779701612574,-4.236,11.838,-2.9670002,15.832579,0.3537875,-0.0677875,0.301125,-6.893785,109.4104333,34.39999771118164,0.03911889,5.071,0.0
1779701612576,7.4940004,9.91005,-11.769001,16.857471,0.0143,-0.1901625,0.0191125,-6.893785,109.4104333,34.39999771118164,0.03911889,5.071,0.0
1779701612581,3.3460503,7.1839504,-2.778,10.089707,-0.4965125,0.184525,-0.0884125,-6.893785,109.4104333,34.39999771118164,0.03911889,5.071,0.0
1779701612593,-3.2730002,5.8759503,18.20895,17.54712,-0.4965125,0.184525,-0.0884125,-6.893785,109.4104333,34.39999771118164,0.03911889,5.071,0.0
1779701612594,-10.03695,10.56795,18.34305,22.252136,0.7123875,-0.210375,0.4351875,-6.893785,109.4104333,34.39999771118164,0.03911889,5.071,0.0
1779701612596,3.5040002,10.257001,0.46695003,13.129677,0.7123875,-0.210375,0.4351875,-6.893785,109.4104333,34.39999771118164,0.03911889,5.071,0.0
1779701612601,13.299001,10.71195,-14.299951,20.444538,0.473,-0.23265,0.1170125,-6.893785,109.4104333,34.39999771118164,0.03911889,5.071,0.0
1779701612607,2.4139502,12.003,-6.0319505,15.007769,-0.1772375,0.13653749,-0.24805,-6.893785,109.4104333,34.39999771118164,0.03911889,5.071,0.0
1779701612611,-6.6379504,7.6060505,13.408951,16.429033,-0.5146625,0.19085,-0.190575,-6.893785,109.4104333,34.39999771118164,0.03911889,5.071,0.0
1779701612616,-7.1509504,8.96805,9.012,14.955341,0.088825,-0.2454375,-0.1373625,-6.893785,109.4104333,34.39999771118164,0.03911889,5.071,0.0
1779701612630,3.17595,8.83905,-3.48705,11.006054,-0.4486625,-0.0262625,-0.0383625,-6.893785,109.4104333,34.39999771118164,0.03911889,5.071,0.0
1779701612630,4.6200004,10.995001,-8.06595,13.7193775,-0.4486625,-0.0262625,-0.0383625,-6.893785,109.4104333,34.39999771118164,0.03911889,5.071,0.0
1779701612633,2.1070502,5.5459504,0.54300004,7.509894,-0.6061,0.166375,-0.1885125,-6.893785,109.4104333,34.39999771118164,0.03911889,5.071,0.0
1779701612642,-4.5760503,2.1019502,20.803051,18.625069,0.2558875,-0.29975,-0.1661,-6.893785,109.4104333,34.39999771118164,0.03911889,5.071,0.0
1779701612647,-10.779,8.710051,12.636001,18.72838,0.76876247,0.0132,0.4989875,-6.893785,109.4104333,34.39999771118164,0.03911889,5.071,0.0
1779701612648,5.781,6.8700004,-6.77505,12.7441,0.76876247,0.0132,0.4989875,-6.893785,109.4104333,34.39999771118164,0.03911889,5.071,0.0
1779701612664,7.1040006,11.710951,-14.748001,18.650831,0.4665375,-0.3348125,0.095699996,-6.893785,109.4104333,34.39999771118164,0.03911889,5.071,0.0
1779701612665,-4.1520004,8.37195,6.6889505,12.923928,0.4665375,-0.3348125,0.095699996,-6.893785,109.4104333,34.39999771118164,0.03911889,5.071,0.0
1779701612665,-6.19995,4.65495,29.977951,27.356195,0.4665375,-0.3348125,0.095699996,-6.893785,109.4104333,34.39999771118164,0.03911889,5.071,0.0
1779701612669,-0.91200006,7.6489506,13.476001,17.889053,0.807125,-0.110275,0.3128125,-6.893785,109.4104333,34.39999771118164,0.03911889,5.071,0.0
1779701612673,10.12395,9.802051,-7.8769503,16.492817,0.807125,-0.110275,0.3128125,-6.893785,109.4104333,34.39999771118164,0.03911889,5.071,0.0
1779701612677,5.0269504,13.782001,-11.212951,18.0703,-0.5465625,0.2281125,-0.206525,-6.893785,109.4104333,34.39999771118164,0.03911889,5.071,0.0
1779701612682,-6.183,11.30595,5.84805,14.934942,-0.630575,0.0132,-0.0820875,-6.893785,109.4104333,34.39999771118164,0.03911889,5.071,0.0
1779701612699,-11.088,9.969001,25.38405,26.538462,-0.630575,0.0132,-0.0820875,-6.893785,109.4104333,34.39999771118164,0.03911889,5.071,0.0
1779701612699,-2.502,9.234,13.507951,18.549843,0.087725,-0.1007875,-0.38005,-6.893785,109.4104333,34.39999771118164,0.03911889,5.071,0.0
1779701612699,16.29105,5.9100003,-4.59795,18.053581,0.087725,-0.1007875,-0.38005,-6.893785,109.4104333,34.39999771118164,0.03911889,5.071,0.0
1779701612703,7.5709505,12.754951,-7.7830505,17.011229,0.087725,-0.1007875,-0.38005,-6.893785,109.4104333,34.39999771118164,0.03911889,5.071,0.0
1779701612709,-10.33395,11.02995,10.273951,18.022877,-0.46145,-0.13585,-0.0746625,-6.893785,109.4104333,34.39999771118164,0.03911889,5.071,0.0
1779701612712,-10.576051,6.6400504,23.341051,24.781889,0.52305,-0.3114375,0.203225,-6.893785,109.4104333,34.39999771118164,0.03911889,5.071,0.0
1779701612719,-0.43995002,7.4209504,6.6769505,12.950205,0.49005,-0.1486375,0.2701875,-6.893785,109.4104333,34.39999771118164,0.03911889,5.071,0.0
1779701612723,9.132,6.59205,-7.9939504,13.639075,-0.339075,-0.0539,-0.256575,-6.893785,109.4104333,34.39999771118164,0.03911889,5.071,0.0
1779701612727,2.4190502,7.3489504,0.13605,8.918253,-0.339075,-0.0539,-0.256575,-6.893785,109.4104333,34.39999771118164,0.03911889,5.071,0.0
1779701612733,-10.621051,4.36005,18.714,19.347807,-0.42734998,0.249425,-0.2118875,-6.893785,109.4104333,34.39999771118164,0.03911889,5.071,0.0
1779701612753,-13.974001,7.3350005,19.05195,23.661306,0.3793625,-0.1868625,0.4819375,-6.893785,109.4104333,34.39999771118164,0.03911889,5.071,0.0
1779701612753,0.0049500004,11.955001,0.97695005,14.328144,-0.3581875,0.28765,-0.21725,-6.893785,109.4104333,34.39999771118164,0.03911889,5.071,0.0
1779701612753,13.311001,7.2889504,-10.330951,17.552551,-0.3581875,0.28765,-0.21725,-6.893785,109.4104333,34.39999771118164,0.03911889,5.071,0.0
1779701612753,11.824051,8.470051,-0.102000006,15.146603,-0.3581875,0.28765,-0.21725,-6.893785,109.4104333,34.39999771118164,0.03911889,5.071,0.0
1779701612758,-1.623,5.1940503,16.35495,16.818514,0.0430375,-0.063525,-0.1353,-6.893785,109.4104333,34.39999771118164,0.03911889,5.071,0.0
1779701612763,-7.3759503,7.7779503,19.10205,20.88698,0.8177125,-0.1252625,0.14355,-6.893785,109.4104333,34.39999771118164,0.03911889,5.071,0.0
1779701612785,-1.1340001,14.55405,3.3259501,16.155197,-0.26565,-0.117699996,-0.0746625,-6.893785,109.4104333,34.39999771118164,0.03911889,5.071,0.0
1779701612785,6.9600005,14.791051,-18.89805,23.220686,-0.31033748,-6.875E-4,-0.08305,-6.893785,109.4104333,34.39999771118164,0.03911889,5.071,0.0
1779701612786,8.883,13.087951,-12.7240505,20.884407,-0.31033748,-6.875E-4,-0.08305,-6.893785,109.4104333,34.39999771118164,0.03911889,5.071,0.0
1779701612786,-4.914,7.8210006,9.08205,14.539864,-0.31033748,-6.875E-4,-0.08305,-6.893785,109.4104333,34.39999771118164,0.03911889,5.071,0.0
1779701612790,-9.225,5.6200504,22.222952,22.675343,0.6571125,-0.452925,0.0638,-6.893785,109.4104333,34.39999771118164,0.03911889,5.071,0.0
1779701612795,-0.12795001,11.524051,4.5690002,14.453,0.6571125,-0.452925,0.0638,-6.893785,109.4104333,34.39999771118164,0.03911889,5.071,0.0
1779701612799,8.542951,12.11295,-16.08,20.386145,0.743325,-0.093225,0.21065,-6.893785,109.4104333,34.39999771118164,0.03911889,5.071,0.0
1779701612818,5.82495,11.104951,-9.769051,16.794067,-0.302775,-0.20185,-0.24805,-6.893785,109.4104333,34.39999771118164,0.03911889,5.071,0.0
1779701612819,-9.559951,8.51805,16.518002,20.078512,-0.302775,-0.20185,-0.24805,-6.893785,109.4104333,34.39999771118164,0.03911889,5.071,0.0
1779701612819,-13.102051,3.3640501,25.570951,27.158447,0.74965,-0.2050125,0.219175,-6.893785,109.4104333,34.39999771118164,0.03911889,5.071,0.0
1779701612820,1.87995,7.7440505,4.2439504,12.654572,0.74965,-0.2050125,0.219175,-6.893785,109.4104333,34.39999771118164,0.03911889,5.071,0.0
1779701612823,9.939,10.489051,-14.848051,19.105951,0.74965,-0.2050125,0.219175,-6.893785,109.4104333,34.39999771118164,0.03911889,5.071,0.0
1779701612830,4.8829503,10.165951,-5.532,13.870438,-0.6593125,0.015262499,-0.305525,-6.893785,109.4104333,34.39999771118164,0.03911889,5.071,0.0
1779701612834,-6.9160504,9.735001,16.132051,18.830889,0.071775,-0.03575,0.0510125,-6.893785,109.4104333,34.39999771118164,0.03911889,5.071,0.0
1779701612853,-10.000951,4.9420505,16.99695,20.030773,0.071775,-0.03575,0.0510125,-6.893785,109.4104333,34.39999771118164,0.03911889,5.071,0.0
1779701612853,2.6179502,8.71905,1.9920001,11.461347,0.071775,-0.03575,0.0510125,-6.893785,109.4104333,34.39999771118164,0.03911889,5.071,0.0
1779701612854,6.5410504,13.31805,-10.923,17.03199,-0.384725,-0.159225,-0.1725625,-6.893785,109.4104333,34.39999771118164,0.03911889,5.071,0.0
1779701612854,5.1730504,8.97105,-5.6350503,12.838055,-0.384725,-0.159225,-0.1725625,-6.893785,109.4104333,34.39999771118164,0.03911889,5.071,0.0
1779701612859,2.08395,8.81505,4.82595,10.778345,-0.0314875,0.119625,-0.11605,-6.893785,109.4104333,34.39999771118164,0.03911889,5.071,0.0
1779701612864,-7.3369503,10.683001,10.722,15.611817,0.24419999,-0.2146375,0.170225,-6.893785,109.4104333,34.39999771118164,0.03911889,5.071,0.0
1779701612881,-3.49305,9.5140505,2.8660502,11.548334,-0.4103,-0.192225,-0.14905,-6.893785,109.4104333,34.39999771118164,0.03911889,5.071,0.0
1779701612881,9.942,11.623951,-7.6590004,15.9945755,-0.4103,-0.192225,-0.14905,-6.893785,109.4104333,34.39999771118164,0.03911889,5.071,0.0
1779701612882,4.49805,10.021951,-6.135,13.264626,-0.4103,-0.192225,-0.14905,-6.893785,109.4104333,34.39999771118164,0.03911889,5.071,0.0
1779701612884,0.55305004,8.99895,3.42195,10.367709,-0.139975,-0.111375,-0.1607375,-6.893785,109.4104333,34.39999771118164,0.03911889,5.071,0.0
1779701612891,0.21105,9.076051,6.4570503,10.986013,0.071775,-0.011275,-0.0895125,-6.893785,109.4104333,34.39999771118164,0.03911889,5.071,0.0
1779701612894,-5.6470504,8.99205,3.63,11.1744375,0.071775,-0.011275,-0.0895125,-6.893785,109.4104333,34.39999771118164,0.03911889,5.071,0.0
1779701612898,1.5450001,10.84395,3.8239503,11.516296,-0.1368125,-0.31033748,0.07975,-6.893785,109.4104333,34.39999771118164,0.03911889,5.071,0.0
1779701612917,4.182,7.0360503,2.7949502,9.222536,0.004675,0.12595,-0.0086624995,-6.893785,109.4104333,34.39999771118164,0.03911889,5.071,0.0
1779701612925,-0.60300004,5.67,1.8730501,6.6458955,0.0578875,-0.1464375,-0.1959375,-6.893785,109.4104333,34.39999771118164,0.03911889,5.071,0.0
1779701612926,-2.3730001,13.024951,0.62700003,11.932533,-0.0974875,-0.23265,0.2776125,-6.893785,109.4104333,34.39999771118164,0.03911889,5.071,0.0
1779701612926,-9.795,12.501,2.7199502,15.276569,-0.0974875,-0.23265,0.2776125,-6.893785,109.4104333,34.39999771118164,0.03911889,5.071,0.0
1779701612926,-2.8969502,7.4830503,6.1909504,11.163236,-0.0974875,-0.23265,0.2776125,-6.893785,109.4104333,34.39999771118164,0.03911889,5.071,0.0
1779701612929,9.52995,6.2359505,5.09595,12.214253,0.12815,0.1695375,-0.0044,-6.893785,109.4104333,34.39999771118164,0.03911889,5.071,0.0
1779701612934,1.9759501,6.4540505,2.2390501,8.131998,-0.025024999,-0.045375,-0.044825,-6.893785,109.4104333,34.39999771118164,0.03911889,5.071,0.0
1779701612949,-0.45705003,10.618951,3.01305,10.46448,-0.025024999,-0.045375,-0.044825,-6.893785,109.4104333,34.39999771118164,0.03911889,5.071,0.0
1779701612949,-5.472,13.48095,1.7770501,13.818745,-0.3146,-0.39765,0.3755125,-6.893785,109.4104333,34.39999771118164,0.03911889,5.071,0.0
1779701612950,-9.670051,13.428,4.25295,16.432016,-0.3146,-0.39765,0.3755125,-6.893785,109.4104333,34.39999771118164,0.03911889,5.071,0.0
1779701612954,4.3110003,11.215051,7.6639504,14.6874075,-0.3146,-0.39765,0.3755125,-6.893785,109.4104333,34.39999771118164,0.03911889,5.071,0.0
1779701612959,10.04205,5.5909505,8.79705,14.516486,-0.23045,-0.1464375,0.27445,-6.893785,109.4104333,34.39999771118164,0.03911889,5.071,0.0
1779701612963,6.91695,3.7999501,9.711,12.914086,0.0132,0.0653125,0.0627,-6.893785,109.4104333,34.39999771118164,0.03911889,5.071,0.0
1779701612982,0.94095004,13.402051,7.1269503,14.749495,-0.157025,-0.3262875,0.3361875,-6.893785,109.4104333,34.39999771118164,0.03911889,5.071,0.0
1779701612983,-11.44995,16.201052,1.9249501,18.895424,-0.2124375,-0.1901625,0.3031875,-6.893785,109.4104333,34.39999771118164,0.03911889,5.071,0.0
1779701612983,-4.4830503,13.509001,-1.422,15.222524,-0.2124375,-0.1901625,0.3031875,-6.893785,109.4104333,34.39999771118164,0.03911889,5.071,0.0
1779701612984,6.636,10.021951,0.25605002,12.66254,-0.1804,0.0759,0.1808125,-6.893785,109.4104333,34.39999771118164,0.03911889,5.071,0.0
1779701612990,4.10295,5.433,6.234,9.917441,-5.5E-4,-0.0763125,0.0638,-6.893785,109.4104333,34.39999771118164,0.03911889,5.071,0.0
1779701612995,6.5530505,5.886,5.9869504,10.503809,-5.5E-4,-0.0763125,0.0638,-6.893785,109.4104333,34.39999771118164,0.03911889,5.071,0.0
1779701613000,-1.16295,11.18595,3.5389502,11.532694,0.1771,0.29095,0.0297,-6.893785,109.4104333,34.39999771118164,0.03911889,5.071,0.0
1779701613025,-10.41705,11.113951,3.6139503,14.830959,0.1771,0.29095,0.0297,-6.893785,109.4104333,34.39999771118164,0.03911889,5.071,0.0
1779701613026,0.68700004,10.839001,0.45000002,11.662248,0.1771,0.29095,0.0297,-6.893785,109.4104333,34.39999771118164,0.03911889,5.071,0.0
1779701613027,2.421,8.20005,0.45000002,9.181896,0.1771,0.29095,0.0297,-6.893785,109.4104333,34.39999771118164,0.03911889,5.071,0.0
1779701613027,-1.0720501,3.96495,6.12795,7.7380753,0.1771,0.29095,0.0297,-6.893785,109.4104333,34.39999771118164,0.03911889,5.071,0.0
1779701613027,3.8800502,7.5670505,5.7790504,9.772941,0.0473,-0.0325875,0.1936,-6.893785,109.4104333,34.39999771118164,0.03911889,5.071,0.0
1779701613031,-6.018,12.333,3.4480503,13.274186,0.137775,-0.086899996,0.265925,-6.893785,109.4104333,34.39999771118164,0.03911889,5.071,0.0
1779701613051,-4.71495,10.566001,-2.46105,12.118128,0.137775,-0.086899996,0.265925,-6.893785,109.4104333,34.39999771118164,0.03911889,5.071,0.0
1779701613052,9.939,7.4929504,-1.02705,12.415073,0.137775,-0.086899996,0.265925,-6.893785,109.4104333,34.39999771118164,0.03911889,5.071,0.0
1779701613052,-1.6660501,6.6520505,6.4180503,9.996922,0.268675,0.0408375,0.0840125,-6.893785,109.4104333,34.39999771118164,0.03911889,5.071,0.0
1779701613052,-1.59195,7.29195,5.58195,9.455496,0.268675,0.0408375,0.0840125,-6.893785,109.4104333,34.39999771118164,0.03911889,5.071,0.0
1779701613056,2.88105,11.838,-0.33,11.641507,0.17173749,0.3356375,0.0840125,-6.893785,109.4104333,34.39999771118164,0.03911889,5.071,0.0
1779701613062,-9.699,11.755951,-1.3429501,14.567948,-0.142175,-0.2209625,0.4096125,-6.893785,109.4104333,34.39999771118164,0.03911889,5.071,0.0
1779701613065,1.67595,9.15495,0.56700003,10.373066,-0.142175,-0.2209625,0.4096125,-6.893785,109.4104333,34.39999771118164,0.03911889,5.071,0.0
1779701613087,8.557051,9.01095,2.2390501,12.175978,-0.0697125,0.004675,0.265925,-6.893785,109.4104333,34.39999771118164,0.03911889,5.071,0.0
1779701613087,-0.588,6.73395,2.52195,8.206965,0.1227875,0.2292125,-0.0086624995,-6.893785,109.4104333,34.39999771118164,0.03911889,5.071,0.0
1779701613088,8.34195,7.2510004,-0.30795002,10.487091,0.1227875,0.2292125,-0.0086624995,-6.893785,109.4104333,34.39999771118164,0.03911889,5.071,0.0
1779701613088,-1.17495,11.50905,6.6480002,12.771788,0.1227875,0.2292125,-0.0086624995,-6.893785,109.4104333,34.39999771118164,0.03911889,5.071,0.0
1779701613091,-15.406051,12.240001,8.32995,19.648022,0.113299996,-0.2869625,0.5064125,-6.893785,109.4104333,34.39999771118164,0.03911889,5.071,0.0
1779701613096,6.1260004,7.8640504,-2.0760002,12.075512,0.0738375,0.12705,0.1276,-6.893785,109.4104333,34.39999771118164,0.03911889,5.071,0.0
1779701613101,6.5860505,9.14595,-1.3480501,11.495779,-0.1390125,0.182325,0.095699996,-6.893785,109.4104333,34.39999771118164,0.03911889,5.071,0.0
1779701613114,-3.7189503,9.06705,6.2430005,11.594903,0.218625,0.3920125,-0.050049998,-6.893785,109.4104333,34.39999771118164,0.03911889,5.071,0.0
1779701613115,7.4389505,7.3830004,5.61105,11.829584,0.218625,0.3920125,-0.050049998,-6.893785,109.4104333,34.39999771118164,0.03911889,5.071,0.0
1779701613116,-1.434,9.177,3.89595,10.423793,0.12815,0.133375,0.0499125,-6.893785,109.4104333,34.39999771118164,0.03911889,5.071,0.0
1779701613121,-9.01395,11.88105,3.7410002,14.385152,-0.0144375,-0.1645875,0.199925,-6.893785,109.4104333,34.39999771118164,0.03911889,5.071,0.0
1779701613126,4.11705,10.863001,1.6980001,12.269388,0.236775,0.296175,0.1595,-6.893785,109.4104333,34.39999771118164,0.03911889,5.071,0.0
1779701613131,0.85005003,7.7880006,-0.98100007,8.7702265,0.0792,-0.0847,0.086075,-6.893785,109.4104333,34.39999771118164,0.03911889,5.071,0.0
1779701613153,-1.2540001,11.65995,-3.86295,11.631676,0.0792,-0.0847,0.086075,-6.893785,109.4104333,34.39999771118164,0.03911889,5.071,0.0
1779701613154,2.90505,13.059001,3.966,13.489302,0.250525,0.18975,0.04455,-6.893785,109.4104333,34.39999771118164,0.03911889,5.071,0.0
1779701613154,-4.8970504,7.1700006,7.9420505,12.111593,0.250525,0.18975,0.04455,-6.893785,109.4104333,34.39999771118164,0.03911889,5.071,0.0
1779701613154,7.1350503,6.6979504,-2.061,10.423087,0.250525,0.18975,0.04455,-6.893785,109.4104333,34.39999771118164,0.03911889,5.071,0.0
1779701613157,8.17605,11.775001,-7.2970505,14.953069,-0.208175,0.3260125,-0.1447875,-6.893785,109.4104333,34.39999771118164,0.03911889,5.071,0.0
1779701613161,-9.06705,13.368001,1.9350001,16.005291,-0.208175,0.3260125,-0.1447875,-6.893785,109.4104333,34.39999771118164,0.03911889,5.071,0.0
1779701613171,-2.5789502,9.819,6.39195,12.798417,-0.0059125,0.0875875,0.18933749,-6.893785,109.4104333,34.39999771118164,0.03911889,5.071,0.0
1779701613175,1.4899501,6.4099503,3.70005,8.599434,-0.0528,-0.0273625,0.070125,-6.893785,109.4104333,34.39999771118164,0.03911889,5.071,0.0
1779701613177,-4.638,12.81,7.9560003,14.341269,-0.0528,-0.0273625,0.070125,-6.893785,109.4104333,34.39999771118164,0.03911889,5.071,0.0
1779701613182,7.0339503,9.387,1.8319501,12.365985,0.088825,0.11,0.152075,-6.893785,109.4104333,34.39999771118164,0.03911889,5.071,0.0
1779701613197,12.255,6.4339504,-1.815,13.641007,0.088825,0.11,0.152075,-6.893785,109.4104333,34.39999771118164,0.03911889,5.071,0.0
1779701613197,-4.2649503,15.900001,3.0270002,16.118647,0.088825,0.11,0.152075,-6.893785,109.4104333,34.39999771118164,0.03911889,5.071,0.0
1779701613197,-6.94005,12.906,3.90405,15.355558,-0.1293875,-0.094325,0.1947,-6.893785,109.4104333,34.39999771118164,0.03911889,5.071,0.0
1779701613202,2.1700501,7.6200004,1.8700501,9.5836525,-0.1293875,-0.094325,0.1947,-6.893785,109.4104333,34.39999771118164,0.03911889,5.071,0.0
1779701613207,0.57900006,11.269951,1.8270001,11.062133,0.0026125,0.149325,0.120175,-6.893785,109.4104333,34.39999771118164,0.03911889,5.071,0.0
1779701613212,-0.54,11.136001,6.2910004,12.45364,-0.175175,0.1131625,0.1595,-6.893785,109.4104333,34.39999771118164,0.03911889,5.071,0.0
1779701613216,3.8149502,7.2300005,3.93705,9.749472,-0.1186625,0.2728,0.0627,-6.893785,109.4104333,34.39999771118164,0.03911889,5.071,0.0
1779701613235,1.5090001,9.33495,9.10095,12.449286,0.1016125,0.037675,-0.0331375,-6.893785,109.4104333,34.39999771118164,0.03911889,5.071,0.0
1779701613235,-8.55405,13.18095,10.176001,17.466324,0.1016125,0.037675,-0.0331375,-6.893785,109.4104333,34.39999771118164,0.03911889,5.071,0.0
1779701613235,2.4480002,7.1190004,6.9979506,11.715934,0.1016125,0.037675,-0.0331375,-6.893785,109.4104333,34.39999771118164,0.03911889,5.071,0.0
1779701613237,1.2,10.69995,7.005,12.619341,0.242,0.1887875,0.091437496,-6.893785,109.4104333,34.39999771118164,0.03911889,5.071,0.0
1779701613245,-8.116051,15.033001,5.4630003,16.872793,0.053625,-0.0996875,0.3777125,-6.893785,109.4104333,34.39999771118164,0.03911889,5.071,0.0
1779701613247,3.55905,8.95905,2.6890502,11.381052,0.053625,-0.0996875,0.3777125,-6.893785,109.4104333,34.39999771118164,0.03911889,5.071,0.0
1779701613252,5.5750504,9.8230505,2.5789502,11.544635,0.02915,0.4387625,0.1563375,-6.893785,109.4104333,34.39999771118164,0.03911889,5.071,0.0
1779701613269,-2.7850502,10.2640505,11.371051,14.764494,0.120725,0.4324375,0.27981248,-6.893785,109.4104333,34.39999771118164,0.03911889,5.071,0.0
1779701613269,0.55995005,6.7579503,0.11895001,8.37862,0.120725,0.4324375,0.27981248,-6.893785,109.4104333,34.39999771118164,0.03911889,5.071,0.0
1779701613269,5.6140504,10.494,4.75395,11.9282675,0.120725,0.4324375,0.27981248,-6.893785,109.4104333,34.39999771118164,0.03911889,5.071,0.0
1779701613274,-13.95495,15.916051,6.9550505,20.210293,-0.2028125,0.0301125,0.6523,-6.893785,109.4104333,34.39999771118164,0.03911889,5.071,0.0
1779701613278,0.354,9.061951,10.902,15.386776,0.0419375,-0.012375,0.300025,-6.893785,109.4104333,34.39999771118164,0.03911889,5.071,0.0
1779701613282,9.309,4.68405,12.151951,15.884047,0.0419375,-0.012375,0.300025,-6.893785,109.4104333,34.39999771118164,0.03911889,5.071,0.0
1779701613300,-3.2040002,8.767051,8.191051,13.11164,0.45485,0.331375,0.37345,-6.893785,109.4104333,34.39999771118164,0.03911889,5.071,0.0
1779701613301,4.54995,9.771001,2.3730001,11.451574,0.176,0.5143875,0.2564375,-6.893785,109.4104333,34.39999771118164,0.03911889,5.071,0.0
1779701613301,2.15295,13.642951,0.90495,13.363432,0.176,0.5143875,0.2564375,-6.893785,109.4104333,34.39999771118164,0.03911889,5.071,0.0
1779701613303,-8.254951,10.453051,5.2330503,14.121223,0.176,0.5143875,0.2564375,-6.893785,109.4104333,34.39999771118164,0.03911889,5.071,0.0
1779701613310,7.39095,7.0140004,-3.1660502,11.360144,0.3612125,0.5069625,0.2223375,-6.893785,109.4104333,34.39999771118164,0.03911889,5.071,0.0
1779701613313,7.5660005,11.577001,-3.66105,13.717192,0.087725,0.3707,0.0968,-6.893785,109.4104333,34.39999771118164,0.03911889,5.071,0.0
1779701613317,-7.3369503,15.79905,1.659,16.742138,-0.16665,0.1802625,0.5245625,-6.893785,109.4104333,34.39999771118164,0.03911889,5.071,0.0
1779701613335,6.1309505,9.02805,8.21205,14.274566,-0.16665,0.1802625,0.5245625,-6.893785,109.4104333,34.39999771118164,0.03911889,5.071,0.0
1779701613335,5.8170004,5.577,1.8919501,9.477053,0.26221249,0.2057,0.2041875,-6.893785,109.4104333,34.39999771118164,0.03911889,5.071,0.0
1779701613335,-4.0470004,10.67805,1.161,11.077893,0.26221249,0.2057,0.2041875,-6.893785,109.4104333,34.39999771118164,0.03911889,5.071,0.0
1779701613338,-1.245,15.19305,-0.55305004,14.418783,0.1676125,0.4995375,0.2872375,-6.893785,109.4104333,34.39999771118164,0.03911889,5.071,0.0
1779701613343,-3.8689501,11.335051,-0.069000006,12.465637,0.1676125,0.4995375,0.2872375,-6.893785,109.4104333,34.39999771118164,0.03911889,5.071,0.0
1779701613347,0.50505,7.42605,0.34695002,8.454157,0.022824999,0.09515,0.219175,-6.893785,109.4104333,34.39999771118164,0.03911889,5.071,0.0
1779701613353,4.69395,11.701051,4.986,12.536895,0.022824999,0.09515,0.219175,-6.893785,109.4104333,34.39999771118164,0.03911889,5.071,0.0
1779701613369,-2.80395,8.4199505,8.907001,12.566162,0.022824999,0.09515,0.219175,-6.893785,109.4104333,34.39999771118164,0.03911889,5.071,0.0
1779701613370,0.90300006,6.9229503,2.328,8.400832,0.5154875,0.3568125,0.2585,-6.893785,109.4104333,34.39999771118164,0.03911889,5.071,0.0
1779701613379,3.7819502,12.034051,-4.76805,12.46848,4.125E-4,0.2217875,0.6853,-6.893785,109.4104333,34.39999771118164,0.03911889,5.071,0.0
1779701613380,-9.43995,16.359001,-0.94095004,17.622263,4.125E-4,0.2217875,0.6853,-6.893785,109.4104333,34.39999771118164,0.03911889,5.071,0.0
1779701613380,0.00705,11.99295,4.13595,13.673328,4.125E-4,0.2217875,0.6853,-6.893785,109.4104333,34.39999771118164,0.03911889,5.071,0.0
1779701613380,12.616951,0.41595003,-1.9110001,12.9487705,0.219725,0.151525,0.2319625,-6.893785,109.4104333,34.39999771118164,0.03911889,5.071,0.0
1779701613386,3.7500002,6.36495,4.25595,9.410345,0.153725,0.476025,-0.050049998,-6.893785,109.4104333,34.39999771118164,0.03911889,5.071,0.0
1779701613390,-6.6910505,14.047951,9.261001,16.368061,0.153725,0.476025,-0.050049998,-6.893785,109.4104333,34.39999771118164,0.03911889,5.071,0.0
1779701613396,-4.887,10.741051,7.2570004,14.35634,0.285725,0.263175,0.11275,-6.893785,109.4104333,34.39999771118164,0.03911889,5.071,0.0
1779701613401,2.043,9.27705,-6.3840003,12.027441,0.4719,0.1120625,0.2968625,-6.893785,109.4104333,34.39999771118164,0.03911889,5.071,0.0
1779701613423,6.3250504,12.25395,-6.102,14.469317,0.3122625,0.380325,-0.0331375,-6.893785,109.4104333,34.39999771118164,0.03911889,5.071,0.0
1779701613424,2.3470502,10.71405,1.389,11.738437,0.3122625,0.380325,-0.0331375,-6.893785,109.4104333,34.39999771118164,0.03911889,5.071,0.0
1779701613424,6.0040503,4.6410003,3.42195,9.007284,0.3122625,0.380325,-0.0331375,-6.893785,109.4104333,34.39999771118164,0.03911889,5.071,0.0
1779701613424,9.925051,5.83995,-6.9330006,12.554782,0.3122625,0.380325,-0.0331375,-6.893785,109.4104333,34.39999771118164,0.03911889,5.071,0.0
1779701613426,-1.44105,13.14,-1.1230501,13.124081,0.3122625,0.380325,-0.0331375,-6.893785,109.4104333,34.39999771118164,0.03911889,5.071,0.0
1779701613430,-5.6680503,9.28905,2.8900502,11.632036,0.1579875,0.182325,-0.192775,-6.893785,109.4104333,34.39999771118164,0.03911889,5.071,0.0
1779701613436,1.40295,3.2680502,-0.60795003,5.212847,-0.0400125,0.2270125,0.1797125,-6.893785,109.4104333,34.39999771118164,0.03911889,5.071,0.0
1779701613448,-2.394,9.58605,-3.52005,9.433587,0.09625,-0.2198625,0.1744875,-6.893785,109.4104333,34.39999771118164,0.03911889,5.071,0.0
1779701613448,-6.5059505,12.934051,0.51000005,13.476428,0.09625,-0.2198625,0.1744875,-6.893785,109.4104333,34.39999771118164,0.03911889,5.071,0.0
1779701613452,4.9290004,6.63105,0.51195,9.317815,-0.0165,0.02585,0.4415125,-6.893785,109.4104333,34.39999771118164,0.03911889,5.071,0.0
1779701613456,12.94305,0.34095,-2.53605,12.418421,-0.0165,0.02585,0.4415125,-6.893785,109.4104333,34.39999771118164,0.03911889,5.071,0.0
1779701613462,5.6980505,7.8430505,-0.94095004,10.275643,0.19635,0.282425,-0.2118875,-6.893785,109.4104333,34.39999771118164,0.03911889,5.071,0.0
1779701613466,-2.22195,9.57705,-1.3120501,9.990002,0.19635,0.282425,-0.2118875,-6.893785,109.4104333,34.39999771118164,0.03911889,5.071,0.0
1779701613486,-5.4739504,7.07595,2.3110502,9.389852,0.1313125,0.214225,-0.098037496,-6.893785,109.4104333,34.39999771118164,0.03911889,5.071,0.0
1779701613486,-6.906,9.579,-6.6670504,12.72674,-0.00385,0.32175,-0.076725,-6.893785,109.4104333,34.39999771118164,0.03911889,5.071,0.0
1779701613487,-0.72,12.012001,-5.81895,13.23865,-0.2028125,-0.13695,0.31913748,-6.893785,109.4104333,34.39999771118164,0.03911889,5.071,0.0
1779701613487,3.9880502,8.4199505,-10.51095,13.884248,-0.2028125,-0.13695,0.31913748,-6.893785,109.4104333,34.39999771118164,0.03911889,5.071,0.0
1779701613491,13.26105,0.84405005,-9.534,15.860337,0.0600875,0.014162499,0.0616,-6.893785,109.4104333,34.39999771118164,0.03911889,5.071,0.0
1779701613496,8.92905,4.4820004,-4.7130003,12.009394,-0.2847625,0.2600125,-0.356675,-6.893785,109.4104333,34.39999771118164,0.03911889,5.071,0.0
1779701613501,-6.0319505,11.02095,2.1720002,12.601906,0.038775,0.053625,-0.1788875,-6.893785,109.4104333,34.39999771118164,0.03911889,5.071,0.0
1779701613515,-2.526,6.8580003,1.269,8.454592,0.122925,-0.211475,-0.1150875,-6.893785,109.4104333,34.39999771118164,0.03911889,5.071,0.0
1779701613516,2.6920502,3.6010501,-8.55405,9.421852,0.122925,-0.211475,-0.1150875,-6.893785,109.4104333,34.39999771118164,0.03911889,5.071,0.0
1779701613516,0.27105,8.10105,-6.543,10.217874,0.122925,-0.211475,-0.1150875,-6.893785,109.4104333,34.39999771118164,0.03911889,5.071,0.0
1779701613522,-4.78695,9.708,-5.62995,11.804117,-0.2836625,-0.3029125,-0.059675,-6.893785,109.4104333,34.39999771118164,0.03911889,5.071,0.0
1779701613527,1.84395,6.5230503,-2.22705,8.068928,-0.26455,0.0429,0.203225,-6.893785,109.4104333,34.39999771118164,0.03911889,5.071,0.0
1779701613531,6.2770505,2.8630502,-2.1670501,7.398982,-0.26455,0.0429,0.203225,-6.893785,109.4104333,34.39999771118164,0.03911889,5.071,0.0
1779701613537,5.39295,5.8759503,-0.63405,7.880432,-0.2198625,-0.1390125,-0.044825,-6.893785,109.4104333,34.39999771118164,0.03911889,5.071,0.0
1779701613548,6.1530004,6.2910004,0.56700003,8.6305065,-0.21133749,-0.039049998,-0.08415,-6.893785,109.4104333,34.39999771118164,0.03911889,5.071,0.0
1779701613550,-2.5789502,5.175,0.33495003,6.3594623,0.053625,-0.1093125,-0.21395,-6.893785,109.4104333,34.39999771118164,0.03911889,5.071,0.0
1779701613565,-5.01405,9.78495,-5.3260503,11.045417,-0.632775,-0.161425,0.3777125,-6.893785,109.4104333,34.39999771118164,0.03911889,5.071,0.0
1779701613566,-4.72905,13.275001,-4.33005,14.003018,-0.632775,-0.161425,0.3777125,-6.893785,109.4104333,34.39999771118164,0.03911889,5.071,0.0
1779701613566,-3.0619502,12.817051,-6.46605,14.543507,-0.632775,-0.161425,0.3777125,-6.893785,109.4104333,34.39999771118164,0.03911889,5.071,0.0
1779701613573,13.077001,0.99300003,-3.34995,13.737291,-0.6837875,0.004675,-0.18425,-6.893785,109.4104333,34.39999771118164,0.03911889,5.071,0.0
1779701613579,11.41905,0.17895001,7.1680503,13.534345,-0.138875,0.2462625,-0.386375,-6.893785,109.4104333,34.39999771118164,0.03911889,5.071,0.0
1779701613580,-3.8380501,6.7939506,10.76805,13.345345,0.006875,0.1940125,-0.15125,-6.893785,109.4104333,34.39999771118164,0.03911889,5.071,0.0
1779701613584,-4.53795,9.342,3.5320501,11.445085,0.006875,0.1940125,-0.15125,-6.893785,109.4104333,34.39999771118164,0.03911889,5.071,0.0
1779701613600,-5.1319504,11.43,-5.74695,13.3165245,-0.224125,0.0226875,0.3691875,-6.893785,109.4104333,34.39999771118164,0.03911889,5.071,0.0
1779701613600,-6.2640004,11.875951,3.3670502,13.737251,-0.224125,0.0226875,0.3691875,-6.893785,109.4104333,34.39999771118164,0.03911889,5.071,0.0
1779701613600,-1.3789501,9.05895,4.9759502,11.089197,-0.224125,0.0226875,0.3691875,-6.893785,109.4104333,34.39999771118164,0.03911889,5.071,0.0
1779701613608,9.8869505,4.57095,1.4800501,11.011871,-0.224125,0.0226875,0.3691875,-6.893785,109.4104333,34.39999771118164,0.03911889,5.071,0.0
1779701613614,9.819,7.2990003,-5.0479503,12.790518,-0.3144625,0.249425,-0.0468875,-6.893785,109.4104333,34.39999771118164,0.03911889,5.071,0.0
1779701613615,2.29905,15.19305,-2.08095,14.963129,-0.3144625,0.249425,-0.0468875,-6.893785,109.4104333,34.39999771118164,0.03911889,5.071,0.0
1779701613620,0.25905,11.29905,-0.67200005,12.050211,-0.3144625,0.249425,-0.0468875,-6.893785,109.4104333,34.39999771118164,0.03911889,5.071,0.0
1779701613636,-0.48105,7.1410503,-6.33405,10.056059,-0.237875,-0.0028875,-0.189475,-6.893785,109.4104333,34.39999771118164,0.03911889,5.071,0.0
1779701613637,-2.05395,12.879001,2.9020503,12.6998005,-0.4208875,0.0451,0.47341248,-6.893785,109.4104333,34.39999771118164,0.03911889,5.071,0.0
1779701613638,-9.09795,15.475951,6.68205,17.864243,-0.4208875,0.0451,0.47341248,-6.893785,109.4104333,34.39999771118164,0.03911889,5.071,0.0
1779701613641,4.60305,7.7880006,1.26195,10.880206,-0.4208875,0.0451,0.47341248,-6.893785,109.4104333,34.39999771118164,0.03911889,5.071,0.0
1779701613646,14.598001,3.4020002,-2.94495,14.396626,-0.59125,0.4984375,-0.28105,-6.893785,109.4104333,34.39999771118164,0.03911889,5.071,0.0
1779701613650,-1.7740501,13.95495,12.717001,18.050034,-0.2123,0.198275,-0.0363,-6.893785,109.4104333,34.39999771118164,0.03911889,5.071,0.0
1779701613671,-6.63105,13.477951,14.700001,20.42364,-0.3730375,-0.0570625,0.37661248,-6.893785,109.4104333,34.39999771118164,0.03911889,5.071,0.0
1779701613671,2.6850002,9.13395,4.0300503,12.355333,-0.3730375,-0.0570625,0.37661248,-6.893785,109.4104333,34.39999771118164,0.03911889,5.071,0.0
1779701613671,-1.125,14.637001,-3.3070502,14.509512,-0.3730375,-0.0570625,0.37661248,-6.893785,109.4104333,34.39999771118164,0.03911889,5.071,0.0
1779701613671,-7.32105,20.436,3.4750502,20.489243,-0.3730375,-0.0570625,0.37661248,-6.893785,109.4104333,34.39999771118164,0.03911889,5.071,0.0
1779701613678,3.0250502,12.70695,-0.81405,14.567772,-0.336875,0.1153625,0.31913748,-6.893785,109.4104333,34.39999771118164,0.03911889,5.071,0.0
1779701613680,15.1050005,3.4669502,-2.2750502,15.444646,-0.336875,0.1153625,0.31913748,-6.893785,109.4104333,34.39999771118164,0.03911889,5.071,0.0
1779701613685,3.0250502,9.802051,12.05595,15.75263,-0.336875,0.345125,-0.2300375,-6.893785,109.4104333,34.39999771118164,0.03911889,5.071,0.0
1779701613699,-9.77805,13.35795,22.566002,25.540089,0.285725,-0.0603625,0.0840125,-6.893785,109.4104333,34.39999771118164,0.03911889,5.071,0.0
1779701613700,-6.1590004,10.144051,17.25105,21.859066,0.285725,-0.0603625,0.0840125,-6.893785,109.4104333,34.39999771118164,0.03911889,5.071,0.0
1779701613700,-2.9929502,12.465,4.00605,15.116335,0.285725,-0.0603625,0.0840125,-6.893785,109.4104333,34.39999771118164,0.03911889,5.071,0.0
1779701613707,-1.503,14.142,7.4100003,15.852315,0.1164625,-0.1486375,0.2308625,-6.893785,109.4104333,34.39999771118164,0.03911889,5.071,0.0
1779701613712,3.0940502,10.599001,-0.61695004,12.017342,0.023924999,0.2462625,0.27981248,-6.893785,109.4104333,34.39999771118164,0.03911889,5.071,0.0
1779701613716,10.114051,9.229051,-2.358,13.518274,0.023924999,0.2462625,0.27981248,-6.893785,109.4104333,34.39999771118164,0.03911889,5.071,0.0
1779701613721,0.24195,15.67695,8.286,16.890593,-0.3144625,0.1865875,0.0829125,-6.893785,109.4104333,34.39999771118164,0.03911889,5.071,0.0
1779701613735,-3.8790002,15.576001,18.88005,23.20319,-0.3144625,0.1865875,0.0829125,-6.893785,109.4104333,34.39999771118164,0.03911889,5.071,0.0
1779701613736,9.24195,7.0399504,9.996,16.901653,0.7689,0.12485,-0.1640375,-6.893785,109.4104333,34.39999771118164,0.03911889,5.071,0.0
1779701613737,5.544,9.97395,-10.1970005,15.623061,0.7689,0.12485,-0.1640375,-6.893785,109.4104333,34.39999771118164,0.03911889,5.071,0.0
1779701613743,-3.9600003,22.414051,-12.8560505,24.037374,0.48688748,0.4068625,-0.0969375,-6.893785,109.4104333,34.39999771118164,0.03911889,5.071,0.0
1779701613746,-5.4,23.640001,-9.402,25.613739,0.0292875,0.0983125,0.0562375,-6.893785,109.4104333,34.39999771118164,0.03911889,5.071,0.0
1779701613751,4.14795,12.42405,-1.7839501,15.69804,-0.6732,-0.03575,0.4032875,-6.893785,109.4104333,34.39999771118164,0.03911889,5.071,0.0
1779701613769,17.778002,0.90705,11.400001,20.050482,-0.6732,-0.03575,0.4032875,-6.893785,109.4104333,34.39999771118164,0.03911889,5.071,0.0
1779701613769,11.137051,1.2040501,14.89395,18.919172,0.671,0.4750625,-0.418275,-6.893785,109.4104333,34.39999771118164,0.03911889,5.071,0.0
1779701613776,-2.02095,11.089951,5.97795,13.991507,0.12815,0.0578875,-0.1342,-6.893785,109.4104333,34.39999771118164,0.03911889,5.071,0.0
1779701613776,-13.73505,17.976002,-10.530001,22.760973,0.12815,0.0578875,-0.1342,-6.893785,109.4104333,34.39999771118164,0.03911889,5.071,0.0
1779701613779,-16.55805,20.542952,-14.475,28.628174,-0.68488747,-0.0858,0.3617625,-6.893785,109.4104333,34.39999771118164,0.03911889,5.071,0.0
1779701613782,-8.274,15.792001,7.5700502,21.220709,-0.68488747,-0.0858,0.3617625,-6.893785,109.4104333,34.39999771118164,0.03911889,5.071,0.0
1779701613786,8.29605,5.637,11.218051,16.282612,0.2644125,-0.258225,0.50545,-6.893785,109.4104333,34.39999771118164,0.03911889,5.071,0.0
1779701613804,27.043951,-2.3380501,-3.8749502,25.192533,0.2228875,0.5548125,-0.31185,-6.893785,109.4104333,34.39999771118164,0.03911889,5.071,0.0
1779701613805,16.947,8.16405,0.055050004,20.087345,0.349525,0.3718,-0.0746625,-6.893785,109.4104333,34.39999771118164,0.03911889,5.071,0.0
1779701613805,-14.878951,18.354,2.97405,23.068516,0.349525,0.3718,-0.0746625,-6.893785,109.4104333,34.39999771118164,0.03911889,5.071,0.0
1779701613808,-15.817951,16.347,-7.3570504,23.73953,0.2761,-0.2061125,0.136125,-6.893785,109.4104333,34.39999771118164,0.03911889,5.071,0.0
1779701613813,-2.799,15.531001,-20.046001,25.15792,0.2761,-0.2061125,0.136125,-6.893785,109.4104333,34.39999771118164,0.03911889,5.071,0.0
1779701613817,-4.77705,16.671001,-5.4289503,19.569061,-0.5731,0.034375,0.166925,-6.893785,109.4104333,34.39999771118164,0.03911889,5.071,0.0
1779701613822,7.66905,6.8749504,2.46195,12.385525,-0.5762625,-0.3188625,0.50545,-6.893785,109.4104333,34.39999771118164,0.03911889,5.071,0.0
1779701613827,25.555052,-0.72300005,-3.6400502,23.135597,-0.2134,-0.115637496,0.3862375,-6.893785,109.4104333,34.39999771118164,0.03911889,5.071,0.0
1779701613832,12.507001,8.511001,-0.63405,16.7403,-0.188925,0.460075,-0.55027497,-6.893785,109.4104333,34.39999771118164,0.03911889,5.071,0.0
1779701613838,-7.155,15.852001,6.4180503,18.178759,-0.2783,0.1962125,-0.2671625,-6.893785,109.4104333,34.39999771118164,0.03911889,5.071,0.0
1779701613858,-8.191951,11.63895,6.4609504,16.140268,-0.2783,0.1962125,-0.2671625,-6.893785,109.4104333,34.39999771118164,0.03911889,5.071,0.0
1779701613858,-8.595,9.579,-4.2769504,14.077529,-0.2783,0.1962125,-0.2671625,-6.893785,109.4104333,34.39999771118164,0.03911889,5.071,0.0
1779701613859,-5.06895,14.982,-4.57095,15.986339,-0.6199875,0.1962125,0.397925,-6.893785,109.4104333,34.39999771118164,0.03911889,5.071,0.0
1779701613859,1.7080501,14.75205,-0.15705001,15.078415,-0.6199875,0.1962125,0.397925,-6.893785,109.4104333,34.39999771118164,0.03911889,5.071,0.0
1779701613863,11.316001,1.5870001,3.7170002,12.628559,-0.4081,0.0132,-1.375E-4,-6.893785,109.4104333,34.39999771118164,0.03911889,5.071,0.0
1779701613874,16.288052,2.253,9.946051,17.899467,0.3229875,0.242,-0.257675,-6.893785,109.4104333,34.39999771118164,0.03911889,5.071,0.0
1779701613878,-0.53805,15.40095,12.766951,19.589367,0.3229875,0.242,-0.257675,-6.893785,109.4104333,34.39999771118164,0.03911889,5.071,0.0
1779701613879,-8.50605,18.02205,1.4970001,19.905632,-0.223025,-0.1071125,-0.077825,-6.893785,109.4104333,34.39999771118164,0.03911889,5.071,0.0
1779701613882,0.88395005,8.85795,-10.411051,14.939509,-0.223025,-0.1071125,-0.077825,-6.893785,109.4104333,34.39999771118164,0.03911889,5.071,0.0
1779701613887,-3.85995,10.345051,3.0679502,12.155902,-0.5369375,0.2930125,-0.2055625,-6.893785,109.4104333,34.39999771118164,0.03911889,5.071,0.0
1779701613892,-14.2570505,14.482051,11.659051,21.17453,-0.032449998,-0.2891625,0.543675,-6.893785,109.4104333,34.39999771118164,0.03911889,5.071,0.0
1779701613897,7.254,7.83795,-7.7400002,14.786467,-0.032449998,-0.2891625,0.543675,-6.893785,109.4104333,34.39999771118164,0.03911889,5.071,0.0
1779701613903,19.36605,4.14195,-9.0070505,20.36215,-0.7253125,0.458975,-0.38541248,-6.893785,109.4104333,34.39999771118164,0.03911889,5.071,0.0
1779701613922,-1.2090001,12.481951,11.13405,17.48831,-0.1016125,0.0705375,0.045649998,-6.893785,109.4104333,34.39999771118164,0.03911889,5.071,0.0
1779701613923,-2.49,12.814951,11.57505,17.455423,-0.0963875,0.068475,-0.37895,-6.893785,109.4104333,34.39999771118164,0.03911889,5.071,0.0
1779701613925,4.677,7.0669503,0.78795004,10.299878,-0.3240875,0.2600125,-0.026675,-6.893785,109.4104333,34.39999771118164,0.03911889,5.071,0.0
1779701613925,-6.0199504,8.83695,-4.04895,11.206796,-0.3240875,0.2600125,-0.026675,-6.893785,109.4104333,34.39999771118164,0.03911889,5.071,0.0
1779701613928,-7.02405,12.781051,6.504,15.016199,0.040975,-0.1252625,0.0510125,-6.893785,109.4104333,34.39999771118164,0.03911889,5.071,0.0
1779701613933,-3.6160502,14.524951,-2.77305,15.181643,-0.139975,-0.00385,0.3936625,-6.893785,109.4104333,34.39999771118164,0.03911889,5.071,0.0
1779701613938,9.181951,10.318951,-8.6650505,16.080795,-0.8540125,-0.0561,0.0510125,-6.893785,109.4104333,34.39999771118164,0.03911889,5.071,0.0
1779701613957,16.07295,6.3120003,3.2280002,17.269794,0.7145875,-0.20185,-0.55027497,-6.893785,109.4104333,34.39999771118164,0.03911889,5.071,0.0
1779701613957,4.5409503,6.0730505,22.587002,22.514702,0.7145875,-0.20185,-0.55027497,-6.893785,109.4104333,34.39999771118164,0.03911889,5.071,0.0
1779701613958,-1.8739501,4.248,16.906052,18.528557,-0.142175,0.4686,-0.3491125,-6.893785,109.4104333,34.39999771118164,0.03911889,5.071,0.0
1779701613959,-3.9840002,10.56105,-10.98795,16.307758,-0.142175,0.4686,-0.3491125,-6.893785,109.4104333,34.39999771118164,0.03911889,5.071,0.0
1779701613965,-13.960051,19.066051,-3.4650002,22.36805,-0.4783625,-0.23595,-0.093775,-6.893785,109.4104333,34.39999771118164,0.03911889,5.071,0.0
1779701613972,-18.619951,16.005001,8.859,25.355673,-0.2123,-0.36685,0.6873625,-6.893785,109.4104333,34.39999771118164,0.03911889,5.071,0.0
1779701613973,10.519051,2.59995,3.39105,14.154197,-0.2123,-0.36685,0.6873625,-6.893785,109.4104333,34.39999771118164,0.03911889,5.071,0.0
1779701613991,26.00505,-1.15005,1.57605,23.693348,0.2462625,0.2919125,-0.3746875,-6.893785,109.4104333,34.39999771118164,0.03911889,5.071,0.0
1779701613992,6.68205,8.37405,14.125051,18.921286,0.2462625,0.2919125,-0.3746875,-6.893785,109.4104333,34.39999771118164,0.03911889,5.071,0.0
1779701613992,-4.6189504,8.997001,16.41,19.205154,0.2462625,0.2919125,-0.3746875,-6.893785,109.4104333,34.39999771118164,0.03911889,5.071,0.0
1779701613992,-8.32695,9.184051,2.3080502,13.929028,0.2462625,0.2919125,-0.3746875,-6.893785,109.4104333,34.39999771118164,0.03911889,5.071,0.0
1779701613998,-12.750001,13.729951,-4.01805,18.116169,-0.1505625,-0.036849998,-0.0138875,-6.893785,109.4104333,34.39999771118164,0.03911889,5.071,0.0
1779701614001,-9.01605,12.22605,6.8830504,16.965302,-0.2921875,-0.309375,0.25959998,-6.893785,109.4104333,34.39999771118164,0.03911889,5.071,0.0
1779701614020,6.2460003,-0.117000006,10.891951,13.438105,0.5336375,0.2770625,-0.337425,-6.893785,109.4104333,34.39999771118164,0.03911889,5.071,0.0
1779701614020,15.823951,-2.673,6.84705,16.645832,0.5336375,0.2770625,-0.337425,-6.893785,109.4104333,34.39999771118164,0.03911889,5.071,0.0
1779701614021,4.81395,10.827001,5.14905,13.664683,0.5336375,0.2770625,-0.337425,-6.893785,109.4104333,34.39999771118164,0.03911889,5.071,0.0
1779701614022,-3.834,15.615001,0.57900006,15.604315,0.32505,0.02585,-0.0820875,-6.893785,109.4104333,34.39999771118164,0.03911889,5.071,0.0
1779701614028,2.697,9.061951,-2.775,11.003741,0.32505,0.02585,-0.0820875,-6.893785,109.4104333,34.39999771118164,0.03911889,5.071,0.0
1779701614031,2.946,5.907,-4.62195,8.647279,-0.0165,0.083325,-0.189475,-6.893785,109.4104333,34.39999771118164,0.03911889,5.071,0.0
1779701614037,-2.6500502,8.17305,6.28905,10.247622,0.1643125,-0.111375,-0.2426875,-6.893785,109.4104333,34.39999771118164,0.03911889,5.071,0.0
1779701614059,-3.72795,8.19705,2.457,9.516833,0.1643125,-0.111375,-0.2426875,-6.893785,109.4104333,34.39999771118164,0.03911889,5.071,0.0
1779701614060,3.5640001,5.78805,-6.5209503,9.438943,0.1643125,-0.111375,-0.2426875,-6.893785,109.4104333,34.39999771118164,0.03911889,5.071,0.0
1779701614060,5.78595,10.015051,-1.57095,11.225759,0.4081,-0.126225,0.0435875,-6.893785,109.4104333,34.39999771118164,0.03911889,5.071,0.0
1779701614061,2.3470502,9.361051,8.598001,12.585396,0.4081,-0.126225,0.0435875,-6.893785,109.4104333,34.39999771118164,0.03911889,5.071,0.0
1779701614062,8.569051,-0.41205,6.24795,11.007462,0.071775,-0.1848,-0.0671,-6.893785,109.4104333,34.39999771118164,0.03911889,5.071,0.0
1779701614067,3.9300003,1.098,-0.79695004,5.5275726,0.2006125,-0.094325,-0.2332,-6.893785,109.4104333,34.39999771118164,0.03911889,5.071,0.0
1779701614071,-15.16005,11.920951,7.7380505,17.729616,0.22935,0.1643125,-0.42473748,-6.893785,109.4104333,34.39999771118164,0.03911889,5.071,0.0
1779701614093,-19.296001,12.714001,10.78905,23.948042,0.3889875,-0.0188375,-0.3757875,-6.893785,109.4104333,34.39999771118164,0.03911889,5.071,0.0
1779701614093,1.9249501,3.999,4.7080503,9.965749,0.3889875,-0.0188375,-0.3757875,-6.893785,109.4104333,34.39999771118164,0.03911889,5.071,0.0
1779701614094,15.642001,-0.31395,-3.8839502,14.889186,0.3889875,-0.0188375,-0.3757875,-6.893785,109.4104333,34.39999771118164,0.03911889,5.071,0.0
1779701614094,10.950001,5.7970505,0.00405,12.889716,0.3889875,-0.0188375,-0.3757875,-6.893785,109.4104333,34.39999771118164,0.03911889,5.071,0.0
1779701614097,-1.09395,8.11305,3.9709501,9.856921,0.4389,0.0823625,-0.4065875,-6.893785,109.4104333,34.39999771118164,0.03911889,5.071,0.0
1779701614102,-8.42205,8.335951,4.4040003,12.084796,0.695475,-0.3498,-0.271425,-6.893785,109.4104333,34.39999771118164,0.03911889,5.071,0.0
1779701614121,-3.69,8.523001,-4.3390503,10.617838,0.695475,-0.3498,-0.271425,-6.893785,109.4104333,34.39999771118164,0.03911889,5.071,0.0
1779701614122,3.45795,5.98395,-0.864,7.6955876,0.695475,-0.3498,-0.271425,-6.893785,109.4104333,34.39999771118164,0.03911889,5.071,0.0
1779701614122,5.571,3.3040502,0.08595,6.7212515,0.695475,-0.3498,-0.271425,-6.893785,109.4104333,34.39999771118164,0.03911889,5.071,0.0
1779701614122,5.31405,2.97795,-1.3879501,6.342408,0.677325,-0.423225,-0.0906125,-6.893785,109.4104333,34.39999771118164,0.03911889,5.071,0.0
1779701614129,-4.629,10.812,2.4780002,10.884051,0.2814625,-0.0240625,-0.3438875,-6.893785,109.4104333,34.39999771118164,0.03911889,5.071,0.0
1779701614133,-9.129001,15.5449505,12.7240505,19.829197,0.4741,-0.4657125,0.0616,-6.893785,109.4104333,34.39999771118164,0.03911889,5.071,0.0
1779701614138,5.54895,2.835,4.1140504,9.939301,0.4741,-0.4657125,0.0616,-6.893785,109.4104333,34.39999771118164,0.03911889,5.071,0.0
1779701614159,18.276001,-0.89295006,-7.3710003,17.76919,0.040975,-0.3752375,0.297825,-6.893785,109.4104333,34.39999771118164,0.03911889,5.071,0.0
1779701614159,2.59605,10.13895,-9.61995,14.926261,0.040975,-0.3752375,0.297825,-6.893785,109.4104333,34.39999771118164,0.03911889,5.071,0.0
1779701614159,-16.647001,19.257,-8.859,24.547243,0.040975,-0.3752375,0.297825,-6.893785,109.4104333,34.39999771118164,0.03911889,5.071,0.0
1779701614160,-9.876,15.7890005,0.14805001,19.808573,0.040975,-0.3752375,0.297825,-6.893785,109.4104333,34.39999771118164,0.03911889,5.071,0.0
1779701614163,6.4159503,1.35,-5.4550505,10.7849455,0.1463,-0.669075,0.314875,-6.893785,109.4104333,34.39999771118164,0.03911889,5.071,0.0
1779701614198,20.713951,0.41595003,-3.4000502,18.953201,0.104775,-0.16775,-0.1672,-6.893785,109.4104333,34.39999771118164,0.03911889,5.071,0.0
1779701614198,11.34,4.9020004,-4.87605,14.415926,0.104775,-0.16775,-0.1672,-6.893785,109.4104333,34.39999771118164,0.03911889,5.071,0.0
1779701614198,-9.43095,14.38605,0.82095003,16.660273,0.104775,-0.16775,-0.1672,-6.893785,109.4104333,34.39999771118164,0.03911889,5.071,0.0
1779701614198,-12.939001,18.580051,-3.1009502,21.614323,0.104775,-0.16775,-0.1672,-6.893785,109.4104333,34.39999771118164,0.03911889,5.071,0.0
1779701614198,0.91995007,13.579051,-9.12195,17.430344,0.104775,-0.16775,-0.1672,-6.893785,109.4104333,34.39999771118164,0.03911889,5.071,0.0
1779701614198,15.92205,8.002951,-17.46105,23.44518,0.104775,-0.16775,-0.1672,-6.893785,109.4104333,34.39999771118164,0.03911889,5.071,0.0
1779701614202,19.65105,6.97095,-17.814001,26.62854,0.0675125,-0.0996875,-0.7695875,-6.893785,109.4104333,34.39999771118164,0.03911889,5.071,0.0
1779701614205,3.35505,15.982951,-14.998951,23.064789,-0.318725,-0.046475,-0.6939625,-6.893785,109.4104333,34.39999771118164,0.03911889,5.071,0.0
1779701614225,-12.08205,24.32295,-3.4980001,26.5192,-0.237875,-0.407275,-0.54175,-6.893785,109.4104333,34.39999771118164,0.03911889,5.071,0.0
1779701614225,-2.64105,15.769951,-5.019,18.710867,-0.237875,-0.407275,-0.54175,-6.893785,109.4104333,34.39999771118164,0.03911889,5.071,0.0
1779701614226,13.038001,3.8500502,-7.965,16.347027,-0.237875,-0.407275,-0.54175,-6.893785,109.4104333,34.39999771118164,0.03911889,5.071,0.0
1779701614232,8.398951,7.7779503,-8.03505,14.457997,-0.671,-0.4252875,-0.549175,-6.893785,109.4104333,34.39999771118164,0.03911889,5.071,0.0
1779701614234,-8.122951,12.45495,1.314,14.833719,-0.671,-0.4252875,-0.549175,-6.893785,109.4104333,34.39999771118164,0.03911889,5.071,0.0
1779701614236,-14.533951,16.03605,10.55895,22.231337,-0.7689,-0.1634875,0.045649998,-6.893785,109.4104333,34.39999771118164,0.03911889,5.071,0.0
1779701614263,-7.3969502,5.0790005,17.22495,19.983786,0.0760375,-0.16885,0.1882375,-6.893785,109.4104333,34.39999771118164,0.03911889,5.071,0.0
1779701614263,3.3030002,0.076050006,15.799951,16.910107,0.0760375,-0.16885,0.1882375,-6.893785,109.4104333,34.39999771118164,0.03911889,5.071,0.0
1779701614263,-0.49695003,8.63805,20.72895,21.351814,0.0760375,-0.16885,0.1882375,-6.893785,109.4104333,34.39999771118164,0.03911889,5.071,0.0
1779701614264,-9.76605,15.318001,15.232051,23.236137,0.0760375,-0.16885,0.1882375,-6.893785,109.4104333,34.39999771118164,0.03911889,5.071,0.0
1779701614264,-1.9339501,15.67695,6.1069503,18.195406,0.0760375,-0.16885,0.1882375,-6.893785,109.4104333,34.39999771118164,0.03911889,5.071,0.0
1779701614267,5.7000003,16.671001,-0.351,17.736694,-0.1601875,0.0163625,0.0573375,-6.893785,109.4104333,34.39999771118164,0.03911889,5.071,0.0
1779701614273,2.4720001,19.20495,4.50495,19.451763,-0.1942875,-0.3051125,0.055275,-6.893785,109.4104333,34.39999771118164,0.03911889,5.071,0.0
1779701614295,6.52395,20.99595,3.9610503,21.762465,-0.3667125,-0.0922625,-0.2545125,-6.893785,109.4104333,34.39999771118164,0.03911889,5.071,0.0
1779701614295,7.9990506,17.049002,4.026,19.758715,-0.3667125,-0.0922625,-0.2545125,-6.893785,109.4104333,34.39999771118164,0.03911889,5.071,0.0
1779701614295,-0.25995,17.653051,-4.1719503,18.464699,-0.3667125,-0.0922625,-0.2545125,-6.893785,109.4104333,34.39999771118164,0.03911889,5.071,0.0
1779701614296,0.606,18.81705,-0.77295005,18.767075,-0.3667125,-0.0922625,-0.2545125,-6.893785,109.4104333,34.39999771118164,0.03911889,5.071,0.0
1779701614298,-7.0600505,21.21405,2.2390501,21.729284,-0.3667125,-0.0922625,-0.2545125,-6.893785,109.4104333,34.39999771118164,0.03911889,5.071,0.0
1779701614303,-0.82305,14.482051,5.4550505,16.743658,-0.5295125,-0.4327125,0.023375,-6.893785,109.4104333,34.39999771118164,0.03911889,5.071,0.0
1779701614306,10.56,8.743051,5.47905,15.159901,-0.5295125,-0.4327125,0.023375,-6.893785,109.4104333,34.39999771118164,0.03911889,5.071,0.0
1779701614325,0.87195003,5.14095,18.01695,18.037048,0.1739375,-0.111375,-0.028875,-6.893785,109.4104333,34.39999771118164,0.03911889,5.071,0.0
1779701614325,-6.9210005,5.5939503,21.385052,22.13761,0.1739375,-0.111375,-0.028875,-6.893785,109.4104333,34.39999771118164,0.03911889,5.071,0.0
1779701614326,-5.46705,7.2420006,17.341951,20.085436,-0.0697125,0.015262499,0.3851375,-6.893785,109.4104333,34.39999771118164,0.03911889,5.071,0.0
1779701614327,-9.89295,6.3190503,9.7879505,16.244396,-0.0697125,0.015262499,0.3851375,-6.893785,109.4104333,34.39999771118164,0.03911889,5.071,0.0
1779701614332,-0.231,4.0470004,13.222951,14.313144,0.432575,-0.24653749,0.0510125,-6.893785,109.4104333,34.39999771118164,0.03911889,5.071,0.0
1779701614336,1.3770001,7.4470506,3.4080002,9.506442,0.432575,-0.24653749,0.0510125,-6.893785,109.4104333,34.39999771118164,0.03911889,5.071,0.0
1779701614365,1.41795,12.570001,-3.0360003,12.308449,0.473,0.099275,0.27981248,-6.893785,109.4104333,34.39999771118164,0.03911889,5.071,0.0
1779701614366,5.3890505,13.14,-8.776951,15.818008,0.219725,-0.2519,0.1287,-6.893785,109.4104333,34.39999771118164,0.03911889,5.071,0.0
1779701614366,8.434951,11.251051,-4.9740005,15.096085,0.09735,-0.1529,-0.1544125,-6.893785,109.4104333,34.39999771118164,0.03911889,5.071,0.0
1779701614366,6.7489505,8.99205,-4.62405,12.744637,0.0760375,0.184525,-0.2704625,-6.893785,109.4104333,34.39999771118164,0.03911889,5.071,0.0
1779701614366,6.4999504,13.047001,-9.4140005,16.430645,0.0760375,0.184525,-0.2704625,-6.893785,109.4104333,34.39999771118164,0.03911889,5.071,0.0
1779701614372,-0.25095,13.15005,-11.227051,17.120197,-0.498575,-0.1401125,-0.009625,-6.893785,109.4104333,34.39999771118164,0.03911889,5.071,0.0
1779701614374,-6.7890005,12.982051,-5.6470504,15.984635,-0.498575,-0.1401125,-0.009625,-6.893785,109.4104333,34.39999771118164,0.03911889,5.071,0.0
1779701614389,-2.46105,10.84395,3.0010502,12.41098,-0.158125,-0.062425,-0.1480875,-6.893785,109.4104333,34.39999771118164,0.03911889,5.071,0.0
1779701614389,0.47595003,5.622,5.367,8.711834,-0.158125,-0.062425,-0.1480875,-6.893785,109.4104333,34.39999771118164,0.03911889,5.071,0.0
1779701614389,4.56195,3.6349502,8.81595,10.199137,-0.158125,-0.062425,-0.1480875,-6.893785,109.4104333,34.39999771118164,0.03911889,5.071,0.0
1779701614392,3.1279502,4.8580503,10.71,11.775168,0.0026125,0.0642125,-0.2949375,-6.893785,109.4104333,34.39999771118164,0.03911889,5.071,0.0
1779701614397,-7.45695,6.5730004,11.496,14.513151,0.1335125,-0.29975,-0.0565125,-6.893785,109.4104333,34.39999771118164,0.03911889,5.071,0.0
1779701614402,-4.42005,8.23995,4.61205,11.243551,0.038775,-0.028324999,0.0297,-6.893785,109.4104333,34.39999771118164,0.03911889,5.071,0.0
1779701614408,-1.245,6.216,3.55605,8.06368,0.038775,-0.028324999,0.0297,-6.893785,109.4104333,34.39999771118164,0.03911889,5.071,0.0
1779701614414,-3.558,4.4370003,0.18195,6.1649704,-0.092125,-0.0400125,0.235125,-6.893785,109.4104333,34.39999771118164,0.03911889,5.071,0.0
1779701614417,6.66795,4.25505,6.22695,9.286492,0.185625,-0.1549625,-0.2118875,-6.893785,109.4104333,34.39999771118164,0.03911889,5.071,0.0
1779701614422,-1.4239501,8.38395,2.3370001,8.912728,0.185625,-0.1549625,-0.2118875,-6.893785,109.4104333,34.39999771118164,0.03911889,5.071,0.0
1779701614438,0.045,8.08905,5.0560503,9.413992,0.1601875,-0.0922625,-0.1310375,-6.893785,109.4104333,34.39999771118164,0.03911889,5.071,0.0
1779701614439,2.0070002,8.6980505,-0.177,9.025479,0.0919875,-0.161425,-0.0044,-6.893785,109.4104333,34.39999771118164,0.03911889,5.071,0.0
1779701614439,-3.66105,9.4810505,1.1230501,9.985261,0.0919875,-0.161425,-0.0044,-6.893785,109.4104333,34.39999771118164,0.03911889,5.071,0.0
1779701614448,-4.401,9.63195,0.73305005,10.489143,0.155925,0.0386375,0.0658625,-6.893785,109.4104333,34.39999771118164,0.03911889,5.071,0.0
1779701614449,3.4339502,11.31105,0.34005,11.5584,0.155925,0.0386375,0.0658625,-6.893785,109.4104333,34.39999771118164,0.03911889,5.071,0.0
1779701614453,0.15795001,9.229051,-2.8140001,10.031532,-0.220825,-0.0996875,0.18933749,-6.893785,109.4104333,34.39999771118164,0.03911889,5.071,0.0
1779701614457,3.82995,9.55305,1.1880001,10.294733,-0.220825,-0.0996875,0.18933749,-6.893785,109.4104333,34.39999771118164,0.03911889,5.071,0.0
1779701614470,2.2150502,9.847051,11.830951,14.4999695,-0.22825,0.135575,0.0328625,-6.893785,109.4104333,34.39999771118164,0.03911889,5.071,0.0
1779701614471,-4.70295,9.43095,5.7570004,12.506779,0.2101,0.004675,0.3053875,-6.893785,109.4104333,34.39999771118164,0.03911889,5.071,0.0
1779701614473,7.872,8.04105,-0.066,11.5038,0.2101,0.004675,0.3053875,-6.893785,109.4104333,34.39999771118164,0.03911889,5.071,0.0
1779701614490,1.056,10.755,-7.149,12.666655,-0.0633875,0.296175,0.20735,-6.893785,109.4104333,34.39999771118164,0.03911889,5.071,0.0
1779701614499,-6.80595,10.11795,3.11805,12.602407,-0.0196625,0.15895,0.27445,-6.893785,109.4104333,34.39999771118164,0.03911889,5.071,0.0
1779701614499,0.57000005,9.12195,2.66805,10.137446,-0.0196625,0.15895,0.27445,-6.893785,109.4104333,34.39999771118164,0.03911889,5.071,0.0
1779701614499,1.365,8.46105,5.9989505,10.396576,-0.0196625,0.15895,0.27445,-6.893785,109.4104333,34.39999771118164,0.03911889,5.071,0.0
1779701614500,-1.40295,7.5360003,5.23995,9.507549,-0.0196625,0.15895,0.27445,-6.893785,109.4104333,34.39999771118164,0.03911889,5.071,0.0
1779701614503,8.863951,4.866,7.6249504,12.033044,-0.0196625,0.15895,0.27445,-6.893785,109.4104333,34.39999771118164,0.03911889,5.071,0.0
1779701614508,-3.39,9.591001,2.1700501,10.727705,0.2239875,0.148225,0.1233375,-6.893785,109.4104333,34.39999771118164,0.03911889,5.071,0.0
1779701614527,-6.02505,11.244,-0.73695004,12.367772,0.1027125,0.0545875,0.2297625,-6.893785,109.4104333,34.39999771118164,0.03911889,5.071,0.0
1779701614528,1.6639501,8.262,-3.3310502,9.723393,-0.0506,0.0089375,0.202125,-6.893785,109.4104333,34.39999771118164,0.03911889,5.071,0.0
1779701614529,-3.8890502,8.55195,4.50705,10.280588,-0.0506,0.0089375,0.202125,-6.893785,109.4104333,34.39999771118164,0.03911889,5.071,0.0
1779701614529,-2.7150002,6.5490003,9.31095,11.418321,0.2250875,-0.10395,0.2223375,-6.893785,109.4104333,34.39999771118164,0.03911889,5.071,0.0
1779701614533,6.1909504,7.3639503,1.4770501,10.0703125,0.2250875,-0.10395,0.2223375,-6.893785,109.4104333,34.39999771118164,0.03911889,5.071,0.0
1779701614538,-1.7590501,10.918051,2.397,11.066575,0.1197625,-0.1230625,0.1137125,-6.893785,109.4104333,34.39999771118164,0.03911889,5.071,0.0
1779701614565,-4.3369503,12.355051,-0.76305,12.706397,0.03025,0.3271125,-0.1331,-6.893785,109.4104333,34.39999771118164,0.03911889,5.071,0.0
1779701614565,7.044,9.61695,2.9310002,12.361893,0.03025,0.3271125,-0.1331,-6.893785,109.4104333,34.39999771118164,0.03911889,5.071,0.0
1779701614565,1.0819501,9.5119505,-0.47100002,10.140272,0.03025,0.3271125,-0.1331,-6.893785,109.4104333,34.39999771118164,0.03911889,5.071,0.0
1779701614566,6.40395,7.7470503,1.5109501,10.1593895,0.03025,0.3271125,-0.1331,-6.893785,109.4104333,34.39999771118164,0.03911889,5.071,0.0
1779701614566,3.4009502,11.09805,-2.4829502,11.527924,0.03025,0.3271125,-0.1331,-6.893785,109.4104333,34.39999771118164,0.03911889,5.071,0.0
1779701614572,-8.47305,13.425,5.736,15.8093605,0.03025,0.3271125,-0.1331,-6.893785,109.4104333,34.39999771118164,0.03911889,5.071,0.0
1779701614572,-3.5959501,11.481001,5.307,13.681446,-0.0686125,-0.208175,0.34045,-6.893785,109.4104333,34.39999771118164,0.03911889,5.071,0.0
1779701614590,8.658,5.7780004,3.4750502,11.515254,-0.0686125,-0.208175,0.34045,-6.893785,109.4104333,34.39999771118164,0.03911889,5.071,0.0
1779701614590,2.49495,6.4129505,2.505,8.161418,-0.027224999,0.084425,-0.25025,-6.893785,109.4104333,34.39999771118164,0.03911889,5.071,0.0
1779701614590,2.1649501,8.51805,-0.66300005,8.683354,-0.027224999,0.084425,-0.25025,-6.893785,109.4104333,34.39999771118164,0.03911889,5.071,0.0
1779701614590,-3.96795,12.408001,1.7740501,12.254477,-0.027224999,0.084425,-0.25025,-6.893785,109.4104333,34.39999771118164,0.03911889,5.071,0.0
1779701614597,-10.935,12.514951,5.99205,16.584044,-0.13365,0.1610125,0.432025,-6.893785,109.4104333,34.39999771118164,0.03911889,5.071,0.0
1779701614601,5.16405,6.387,6.5620503,11.727152,-0.0517,-0.079475,0.4596625,-6.893785,109.4104333,34.39999771118164,0.03911889,5.071,0.0
1779701614607,8.884951,5.34,-6.543,12.152164,0.1984125,0.29095,0.0807125,-6.893785,109.4104333,34.39999771118164,0.03911889,5.071,0.0
1779701614618,0.97005004,9.052051,0.26505002,9.716622,-0.0517,0.0972125,0.04675,-6.893785,109.4104333,34.39999771118164,0.03911889,5.071,0.0
1779701614619,-7.7850003,14.974951,3.1009502,15.671457,-0.0517,0.0972125,0.04675,-6.893785,109.4104333,34.39999771118164,0.03911889,5.071,0.0
1779701614621,-5.9680505,13.39395,8.16705,16.561815,-0.0517,0.0972125,0.04675,-6.893785,109.4104333,34.39999771118164,0.03911889,5.071,0.0
1779701614626,-1.065,9.571951,3.7210503,11.57225,-0.0836,0.0897875,0.2371875,-6.893785,109.4104333,34.39999771118164,0.03911889,5.071,0.0
1779701614632,12.660001,5.6730003,4.8349504,14.067517,0.0589875,0.2259125,0.231825,-6.893785,109.4104333,34.39999771118164,0.03911889,5.071,0.0
1779701614636,4.4760003,10.149,0.615,11.700889,0.0589875,0.2259125,0.231825,-6.893785,109.4104333,34.39999771118164,0.03911889,5.071,0.0
1779701614661,-2.0400002,14.380951,-4.3219504,14.463613,0.0515625,-0.36685,0.122237496,-6.893785,109.4104333,34.39999771118164,0.03911889,5.071,0.0
1779701614661,-2.5090501,14.997001,-1.056,15.086374,0.0515625,-0.36685,0.122237496,-6.893785,109.4104333,34.39999771118164,0.03911889,5.071,0.0
1779701614661,-6.7720504,12.004951,4.3489504,14.579777,0.0515625,-0.36685,0.122237496,-6.893785,109.4104333,34.39999771118164,0.03911889,5.071,0.0
1779701614662,5.1319504,4.16895,8.05395,11.252216,0.0515625,-0.36685,0.122237496,-6.893785,109.4104333,34.39999771118164,0.03911889,5.071,0.0
1779701614664,9.81,7.2970505,-2.4780002,12.230377,0.20693749,0.17379999,-0.0628375,-6.893785,109.4104333,34.39999771118164,0.03911889,5.071,0.0
1779701614667,-0.71505004,12.1699505,1.3909501,12.262103,0.20693749,0.17379999,-0.0628375,-6.893785,109.4104333,34.39999771118164,0.03911889,5.071,0.0
1779701614672,-7.6819506,11.656051,-0.66,13.6327305,-0.2154625,-0.191125,0.021175,-6.893785,109.4104333,34.39999771118164,0.03911889,5.071,0.0
1779701614693,1.1040001,8.793,4.61205,10.718809,-0.2154625,-0.191125,0.021175,-6.893785,109.4104333,34.39999771118164,0.03911889,5.071,0.0
1779701614694,-3.4810503,9.826051,-0.66795003,10.500418,-0.132825,0.0193875,-0.358875,-6.893785,109.4104333,34.39999771118164,0.03911889,5.071,0.0
1779701614694,7.0920005,6.9919505,-2.53305,10.321039,-0.132825,0.0193875,-0.358875,-6.893785,109.4104333,34.39999771118164,0.03911889,5.071,0.0
1779701614694,6.88605,7.4070005,1.044,10.197942,-0.132825,0.0193875,-0.358875,-6.893785,109.4104333,34.39999771118164,0.03911889,5.071,0.0
1779701614697,-7.8880506,11.446951,6.531,14.327026,-0.0391875,0.26633748,0.0380875,-6.893785,109.4104333,34.39999771118164,0.03911889,5.071,0.0
1779701614702,-2.538,11.478001,3.5730002,12.694416,-0.0391875,0.26633748,0.0380875,-6.893785,109.4104333,34.39999771118164,0.03911889,5.071,0.0
1779701614707,5.7790504,9.723001,-3.6349502,12.043308,-0.1903,0.2173875,0.20515,-6.893785,109.4104333,34.39999771118164,0.03911889,5.071,0.0
1779701614729,2.2080002,6.7219505,3.084,8.583239,-0.2542375,-0.096525,0.1689875,-6.893785,109.4104333,34.39999771118164,0.03911889,5.071,0.0
1779701614729,3.14505,6.23295,-1.52295,7.4331713,-0.2542375,-0.096525,0.1689875,-6.893785,109.4104333,34.39999771118164,0.03911889,5.071,0.0
